<?xml version="1.0" encoding="UTF-8"?>
<?xml-stylesheet type="text/xsl" href="define2-0-0.xsl"?>
<ODM
     xmlns:xlink="http://www.w3.org/1999/xlink"
     xmlns="http://www.cdisc.org/ns/odm/v1.3"
     xmlns:def="http://www.cdisc.org/ns/def/v2.0"
     ODMVersion="1.3.2"
     FileType="Snapshot"
     FileOID="Vedolizumab-3039-UC-Part.SDTM-IG.3.2"
     CreationDateTime="2026-03-13T10:22:44Z"
     SourceSystem="Pinnacle 21 Community CLI"
     SourceSystemVersion="1.0.8">
   <Study OID="Vedolizumab-3039-UC-Part.SDTM-IG.3.2">
      <GlobalVariables>
         <StudyName>Vedolizumab-3039 UC Part</StudyName>
         <StudyDescription>Phase 3 Study of Intravenous (IV) Vedolizumab Administered Every 4 Weeks (Q4W) in Japanese Patients with Moderate to Severe Ulcerative Colitis or Crohn's Disease</StudyDescription>
         <ProtocolName>Vedolizumab-3039</ProtocolName>
      </GlobalVariables>
      <MetaDataVersion OID="MDV.Vedolizumab-3039-UC-Part.SDTM-IG.3.2"
                       Name="Study Vedolizumab-3039 UC Part Data Definitions"
                       def:DefineVersion="2.0.0"
                       def:StandardName="SDTM-IG"
                       def:StandardVersion="3.2">
         <def:AnnotatedCRF>
            <def:DocumentRef leafID="LF.acrf"/>
         </def:AnnotatedCRF>
         <def:SupplementalDoc>
            <def:DocumentRef leafID="LF.complexalgorithms"/>
            <def:DocumentRef leafID="LF.reviewersguide"/>
         </def:SupplementalDoc>
         <def:ValueListDef OID="VL.DS.DSSTDTC">
            <ItemRef ItemOID="IT.DS.DSSTDTC.DS.DSDECOD.ADVERSE EVENT" OrderNumber="1" Mandatory="No"
                     MethodOID="MT.DS.DSDECOD.ADVERSE EVENT">
               <def:WhereClauseRef WhereClauseOID="WC.DS.DSDECOD.ADVERSE EVENT"/>
            </ItemRef>
            <ItemRef ItemOID="IT.DS.DSSTDTC.DS.DSDECOD.ADVERSE EVENT.EOS" OrderNumber="2"
                     Mandatory="No"
                     MethodOID="MT.DS.DSDECOD.ADVERSE EVENT.EOS">
               <def:WhereClauseRef WhereClauseOID="WC.DS.DSDECOD.ADVERSE EVENT.EOS"/>
            </ItemRef>
            <ItemRef ItemOID="IT.DS.DSSTDTC.DS.DSDECOD.COMPLETED.EOET" OrderNumber="3"
                     Mandatory="No"
                     MethodOID="MT.DS.DSDECOD.COMPLETED.EOET">
               <def:WhereClauseRef WhereClauseOID="WC.DS.DSDECOD.COMPLETED.EOET"/>
            </ItemRef>
            <ItemRef ItemOID="IT.DS.DSSTDTC.DS.DSDECOD.COMPLETED.EOS" OrderNumber="4" Mandatory="No"
                     MethodOID="MT.DS.DSDECOD.COMPLETED.EOS">
               <def:WhereClauseRef WhereClauseOID="WC.DS.DSDECOD.COMPLETED.EOS"/>
            </ItemRef>
            <ItemRef ItemOID="IT.DS.DSSTDTC.DS.DSDECOD.COMPLETED.EOT" OrderNumber="5" Mandatory="No"
                     MethodOID="MT.DS.DSDECOD.COMPLETED.EOT">
               <def:WhereClauseRef WhereClauseOID="WC.DS.DSDECOD.COMPLETED.EOT"/>
            </ItemRef>
            <ItemRef ItemOID="IT.DS.DSSTDTC.DS.DSDECOD.INFORMED CONSENT OBTAINED" OrderNumber="6"
                     Mandatory="No">
               <def:WhereClauseRef WhereClauseOID="WC.DS.DSDECOD.INFORMED CONSENT OBTAINED"/>
            </ItemRef>
            <ItemRef ItemOID="IT.DS.DSSTDTC.DS.DSDECOD.LACK OF EFFICACY.EOET" OrderNumber="7"
                     Mandatory="No"
                     MethodOID="MT.DS.DSDECOD.LACK OF EFFICACY.EOET">
               <def:WhereClauseRef WhereClauseOID="WC.DS.DSDECOD.LACK OF EFFICACY.EOET"/>
            </ItemRef>
            <ItemRef ItemOID="IT.DS.DSSTDTC.DS.DSDECOD.LACK OF EFFICACY.EOS" OrderNumber="8"
                     Mandatory="No"
                     MethodOID="MT.DS.DSDECOD.LACK OF EFFICACY.EOS">
               <def:WhereClauseRef WhereClauseOID="WC.DS.DSDECOD.LACK OF EFFICACY.EOS"/>
            </ItemRef>
            <ItemRef ItemOID="IT.DS.DSSTDTC.DS.DSDECOD.LACK OF EFFICACY.EOT" OrderNumber="9"
                     Mandatory="No"
                     MethodOID="MT.DS.DSDECOD.LACK OF EFFICACY.EOT">
               <def:WhereClauseRef WhereClauseOID="WC.DS.DSDECOD.LACK OF EFFICACY.EOT"/>
            </ItemRef>
            <ItemRef ItemOID="IT.DS.DSSTDTC.DS.DSDECOD.SCREEN FAILURE" OrderNumber="10"
                     Mandatory="No">
               <def:WhereClauseRef WhereClauseOID="WC.DS.DSDECOD.SCREEN FAILURE"/>
            </ItemRef>
            <ItemRef ItemOID="IT.DS.DSSTDTC.DS.DSDECOD.WITHDRAWAL BY SUBJECT.EOET" OrderNumber="11"
                     Mandatory="No"
                     MethodOID="MT.DS.DSDECOD.WITHDRAWAL BY SUBJECT.EOET">
               <def:WhereClauseRef WhereClauseOID="WC.DS.DSDECOD.WITHDRAWAL BY SUBJECT.EOET"/>
            </ItemRef>
            <ItemRef ItemOID="IT.DS.DSSTDTC.DS.DSDECOD.WITHDRAWAL BY SUBJECT.EOS" OrderNumber="12"
                     Mandatory="No"
                     MethodOID="MT.DS.DSDECOD.WITHDRAWAL BY SUBJECT.EOS">
               <def:WhereClauseRef WhereClauseOID="WC.DS.DSDECOD.WITHDRAWAL BY SUBJECT.EOS"/>
            </ItemRef>
            <ItemRef ItemOID="IT.DS.DSSTDTC.DS.DSDECOD.WITHDRAWAL BY SUBJECT.EOT" OrderNumber="13"
                     Mandatory="No"
                     MethodOID="MT.DS.DSDECOD.WITHDRAWAL BY SUBJECT.EOT">
               <def:WhereClauseRef WhereClauseOID="WC.DS.DSDECOD.WITHDRAWAL BY SUBJECT.EOT"/>
            </ItemRef>
         </def:ValueListDef>
         <def:ValueListDef OID="VL.FA.FAORRES">
            <ItemRef ItemOID="IT.FA.FAORRES.FA.FATESTCD.CLNRSPC.FA.FACAT.1.FA.FASCAT.2"
                     OrderNumber="1"
                     Mandatory="No">
               <def:WhereClauseRef WhereClauseOID="WC.FA.FATESTCD.CLNRSPC.FA.FACAT.1.FA.FASCAT.2"/>
            </ItemRef>
            <ItemRef ItemOID="IT.FA.FAORRES.FA.FATESTCD.DESCRIB.FA.FACAT.1" OrderNumber="2"
                     Mandatory="No">
               <def:WhereClauseRef WhereClauseOID="WC.FA.FATESTCD.DESCRIB.FA.FACAT.1"/>
            </ItemRef>
            <ItemRef ItemOID="IT.FA.FAORRES.FA.FATESTCD.ELGEXPL.FA.FACAT.1.FA.FASCAT.2"
                     OrderNumber="3"
                     Mandatory="No">
               <def:WhereClauseRef WhereClauseOID="WC.FA.FATESTCD.ELGEXPL.FA.FACAT.1.FA.FASCAT.2"/>
            </ItemRef>
            <ItemRef ItemOID="IT.FA.FAORRES.FA.FATESTCD.HOSPREAS.FA.FACAT.1" OrderNumber="4"
                     Mandatory="No">
               <def:WhereClauseRef WhereClauseOID="WC.FA.FATESTCD.HOSPREAS.FA.FACAT.1"/>
            </ItemRef>
            <ItemRef ItemOID="IT.FA.FAORRES.FA.FATESTCD.NUMOCCUR.FA.FACAT.1" OrderNumber="5"
                     Mandatory="No">
               <def:WhereClauseRef WhereClauseOID="WC.FA.FATESTCD.NUMOCCUR.FA.FACAT.1"/>
            </ItemRef>
            <ItemRef ItemOID="IT.FA.FAORRES.FA.FATESTCD.OCCENDTC.FA.FACAT.1" OrderNumber="6"
                     Mandatory="No">
               <def:WhereClauseRef WhereClauseOID="WC.FA.FATESTCD.OCCENDTC.FA.FACAT.1"/>
            </ItemRef>
            <ItemRef ItemOID="IT.FA.FAORRES.FA.FATESTCD.OCCUR.FA.FACAT.1" OrderNumber="7"
                     Mandatory="No">
               <def:WhereClauseRef WhereClauseOID="WC.FA.FATESTCD.OCCUR.FA.FACAT.1"/>
            </ItemRef>
            <ItemRef ItemOID="IT.FA.FAORRES.FA.FATESTCD.OCENRTPT.FA.FACAT.1" OrderNumber="8"
                     Mandatory="No">
               <def:WhereClauseRef WhereClauseOID="WC.FA.FATESTCD.OCENRTPT.FA.FACAT.1"/>
            </ItemRef>
            <ItemRef ItemOID="IT.FA.FAORRES.FA.FATESTCD.SLRSPC.FA.FACAT.1.FA.FASCAT.2"
                     OrderNumber="9"
                     Mandatory="No">
               <def:WhereClauseRef WhereClauseOID="WC.FA.FATESTCD.SLRSPC.FA.FACAT.1.FA.FASCAT.2"/>
            </ItemRef>
         </def:ValueListDef>
         <def:ValueListDef OID="VL.IS.ISORRES">
            <ItemRef ItemOID="IT.IS.ISORRES.IS.ISTESTCD.ADA_BAB.IS.ISCAT.1" OrderNumber="1"
                     Mandatory="No">
               <def:WhereClauseRef WhereClauseOID="WC.IS.ISTESTCD.ADA_BAB.IS.ISCAT.1"/>
            </ItemRef>
            <ItemRef ItemOID="IT.IS.ISORRES.IS.ISTESTCD.ADA_NAB.IS.ISCAT.1" OrderNumber="2"
                     Mandatory="No">
               <def:WhereClauseRef WhereClauseOID="WC.IS.ISTESTCD.ADA_NAB.IS.ISCAT.1"/>
            </ItemRef>
         </def:ValueListDef>
         <def:ValueListDef OID="VL.LB.LBORRES">
            <ItemRef ItemOID="IT.LB.LBORRES.LB.LBTESTCD.ALB.LB.LBCAT.1" OrderNumber="1"
                     Mandatory="No">
               <def:WhereClauseRef WhereClauseOID="WC.LB.LBTESTCD.ALB.LB.LBCAT.1"/>
            </ItemRef>
            <ItemRef ItemOID="IT.LB.LBORRES.LB.LBTESTCD.ALP.LB.LBCAT.1" OrderNumber="2"
                     Mandatory="No">
               <def:WhereClauseRef WhereClauseOID="WC.LB.LBTESTCD.ALP.LB.LBCAT.1"/>
            </ItemRef>
            <ItemRef ItemOID="IT.LB.LBORRES.LB.LBTESTCD.ALT.LB.LBCAT.1" OrderNumber="3"
                     Mandatory="No">
               <def:WhereClauseRef WhereClauseOID="WC.LB.LBTESTCD.ALT.LB.LBCAT.1"/>
            </ItemRef>
            <ItemRef ItemOID="IT.LB.LBORRES.LB.LBTESTCD.AMYLASE.LB.LBCAT.1" OrderNumber="4"
                     Mandatory="No">
               <def:WhereClauseRef WhereClauseOID="WC.LB.LBTESTCD.AMYLASE.LB.LBCAT.1"/>
            </ItemRef>
            <ItemRef ItemOID="IT.LB.LBORRES.LB.LBTESTCD.APTT.LB.LBCAT.2" OrderNumber="5"
                     Mandatory="No">
               <def:WhereClauseRef WhereClauseOID="WC.LB.LBTESTCD.APTT.LB.LBCAT.2"/>
            </ItemRef>
            <ItemRef ItemOID="IT.LB.LBORRES.LB.LBTESTCD.AST.LB.LBCAT.1" OrderNumber="6"
                     Mandatory="No">
               <def:WhereClauseRef WhereClauseOID="WC.LB.LBTESTCD.AST.LB.LBCAT.1"/>
            </ItemRef>
            <ItemRef ItemOID="IT.LB.LBORRES.LB.LBTESTCD.BACT.LB.LBCAT.4" OrderNumber="7"
                     Mandatory="No">
               <def:WhereClauseRef WhereClauseOID="WC.LB.LBTESTCD.BACT.LB.LBCAT.4"/>
            </ItemRef>
            <ItemRef ItemOID="IT.LB.LBORRES.LB.LBTESTCD.BASO.LB.LBCAT.2" OrderNumber="8"
                     Mandatory="No">
               <def:WhereClauseRef WhereClauseOID="WC.LB.LBTESTCD.BASO.LB.LBCAT.2"/>
            </ItemRef>
            <ItemRef ItemOID="IT.LB.LBORRES.LB.LBTESTCD.BASOLE.LB.LBCAT.2" OrderNumber="9"
                     Mandatory="No">
               <def:WhereClauseRef WhereClauseOID="WC.LB.LBTESTCD.BASOLE.LB.LBCAT.2"/>
            </ItemRef>
            <ItemRef ItemOID="IT.LB.LBORRES.LB.LBTESTCD.BILDIR.LB.LBCAT.1" OrderNumber="10"
                     Mandatory="No">
               <def:WhereClauseRef WhereClauseOID="WC.LB.LBTESTCD.BILDIR.LB.LBCAT.1"/>
            </ItemRef>
            <ItemRef ItemOID="IT.LB.LBORRES.LB.LBTESTCD.BILI.LB.LBCAT.4.LB.LBSCAT.8"
                     OrderNumber="11"
                     Mandatory="No">
               <def:WhereClauseRef WhereClauseOID="WC.LB.LBTESTCD.BILI.LB.LBCAT.4.LB.LBSCAT.8"/>
            </ItemRef>
            <ItemRef ItemOID="IT.LB.LBORRES.LB.LBTESTCD.BILI.LB.LBCAT.CHEMISTRY" OrderNumber="12"
                     Mandatory="No">
               <def:WhereClauseRef WhereClauseOID="WC.LB.LBTESTCD.BILI.LB.LBCAT.CHEMISTRY"/>
            </ItemRef>
            <ItemRef ItemOID="IT.LB.LBORRES.LB.LBTESTCD.CA.LB.LBCAT.1" OrderNumber="13"
                     Mandatory="No">
               <def:WhereClauseRef WhereClauseOID="WC.LB.LBTESTCD.CA.LB.LBCAT.1"/>
            </ItemRef>
            <ItemRef ItemOID="IT.LB.LBORRES.LB.LBTESTCD.CALPRO.LB.LBCAT.3" OrderNumber="14"
                     Mandatory="No">
               <def:WhereClauseRef WhereClauseOID="WC.LB.LBTESTCD.CALPRO.LB.LBCAT.3"/>
            </ItemRef>
            <ItemRef ItemOID="IT.LB.LBORRES.LB.LBTESTCD.CK.LB.LBCAT.1" OrderNumber="15"
                     Mandatory="No">
               <def:WhereClauseRef WhereClauseOID="WC.LB.LBTESTCD.CK.LB.LBCAT.1"/>
            </ItemRef>
            <ItemRef ItemOID="IT.LB.LBORRES.LB.LBTESTCD.CL.LB.LBCAT.1" OrderNumber="16"
                     Mandatory="No">
               <def:WhereClauseRef WhereClauseOID="WC.LB.LBTESTCD.CL.LB.LBCAT.1"/>
            </ItemRef>
            <ItemRef ItemOID="IT.LB.LBORRES.LB.LBTESTCD.CREAT.LB.LBCAT.1" OrderNumber="17"
                     Mandatory="No">
               <def:WhereClauseRef WhereClauseOID="WC.LB.LBTESTCD.CREAT.LB.LBCAT.1"/>
            </ItemRef>
            <ItemRef ItemOID="IT.LB.LBORRES.LB.LBTESTCD.CRP.LB.LBCAT.3" OrderNumber="18"
                     Mandatory="No">
               <def:WhereClauseRef WhereClauseOID="WC.LB.LBTESTCD.CRP.LB.LBCAT.3"/>
            </ItemRef>
            <ItemRef ItemOID="IT.LB.LBORRES.LB.LBTESTCD.CSGRAN.LB.LBCAT.4" OrderNumber="19"
                     Mandatory="No">
               <def:WhereClauseRef WhereClauseOID="WC.LB.LBTESTCD.CSGRAN.LB.LBCAT.4"/>
            </ItemRef>
            <ItemRef ItemOID="IT.LB.LBORRES.LB.LBTESTCD.CSHYAL.LB.LBCAT.4" OrderNumber="20"
                     Mandatory="No">
               <def:WhereClauseRef WhereClauseOID="WC.LB.LBTESTCD.CSHYAL.LB.LBCAT.4"/>
            </ItemRef>
            <ItemRef ItemOID="IT.LB.LBORRES.LB.LBTESTCD.CSRBC.LB.LBCAT.4" OrderNumber="21"
                     Mandatory="No">
               <def:WhereClauseRef WhereClauseOID="WC.LB.LBTESTCD.CSRBC.LB.LBCAT.4"/>
            </ItemRef>
            <ItemRef ItemOID="IT.LB.LBORRES.LB.LBTESTCD.CYAMMBIU.LB.LBCAT.4" OrderNumber="22"
                     Mandatory="No">
               <def:WhereClauseRef WhereClauseOID="WC.LB.LBTESTCD.CYAMMBIU.LB.LBCAT.4"/>
            </ItemRef>
            <ItemRef ItemOID="IT.LB.LBORRES.LB.LBTESTCD.CYCAOXA.LB.LBCAT.4" OrderNumber="23"
                     Mandatory="No">
               <def:WhereClauseRef WhereClauseOID="WC.LB.LBTESTCD.CYCAOXA.LB.LBCAT.4"/>
            </ItemRef>
            <ItemRef ItemOID="IT.LB.LBORRES.LB.LBTESTCD.CYTRPHOS.LB.LBCAT.4" OrderNumber="24"
                     Mandatory="No">
               <def:WhereClauseRef WhereClauseOID="WC.LB.LBTESTCD.CYTRPHOS.LB.LBCAT.4"/>
            </ItemRef>
            <ItemRef ItemOID="IT.LB.LBORRES.LB.LBTESTCD.CYURIAC.LB.LBCAT.4" OrderNumber="25"
                     Mandatory="No">
               <def:WhereClauseRef WhereClauseOID="WC.LB.LBTESTCD.CYURIAC.LB.LBCAT.4"/>
            </ItemRef>
            <ItemRef ItemOID="IT.LB.LBORRES.LB.LBTESTCD.EOS.LB.LBCAT.2" OrderNumber="26"
                     Mandatory="No">
               <def:WhereClauseRef WhereClauseOID="WC.LB.LBTESTCD.EOS.LB.LBCAT.2"/>
            </ItemRef>
            <ItemRef ItemOID="IT.LB.LBORRES.LB.LBTESTCD.EOSLE.LB.LBCAT.2" OrderNumber="27"
                     Mandatory="No">
               <def:WhereClauseRef WhereClauseOID="WC.LB.LBTESTCD.EOSLE.LB.LBCAT.2"/>
            </ItemRef>
            <ItemRef ItemOID="IT.LB.LBORRES.LB.LBTESTCD.EPISQCE.LB.LBCAT.4" OrderNumber="28"
                     Mandatory="No">
               <def:WhereClauseRef WhereClauseOID="WC.LB.LBTESTCD.EPISQCE.LB.LBCAT.4"/>
            </ItemRef>
            <ItemRef ItemOID="IT.LB.LBORRES.LB.LBTESTCD.EPITCE.LB.LBCAT.4" OrderNumber="29"
                     Mandatory="No">
               <def:WhereClauseRef WhereClauseOID="WC.LB.LBTESTCD.EPITCE.LB.LBCAT.4"/>
            </ItemRef>
            <ItemRef ItemOID="IT.LB.LBORRES.LB.LBTESTCD.EPITUCE.LB.LBCAT.4" OrderNumber="30"
                     Mandatory="No">
               <def:WhereClauseRef WhereClauseOID="WC.LB.LBTESTCD.EPITUCE.LB.LBCAT.4"/>
            </ItemRef>
            <ItemRef ItemOID="IT.LB.LBORRES.LB.LBTESTCD.FSH.LB.LBCAT.3" OrderNumber="31"
                     Mandatory="No">
               <def:WhereClauseRef WhereClauseOID="WC.LB.LBTESTCD.FSH.LB.LBCAT.3"/>
            </ItemRef>
            <ItemRef ItemOID="IT.LB.LBORRES.LB.LBTESTCD.GGT.LB.LBCAT.1" OrderNumber="32"
                     Mandatory="No">
               <def:WhereClauseRef WhereClauseOID="WC.LB.LBTESTCD.GGT.LB.LBCAT.1"/>
            </ItemRef>
            <ItemRef ItemOID="IT.LB.LBORRES.LB.LBTESTCD.GLUC.LB.LBCAT.4.LB.LBSCAT.8"
                     OrderNumber="33"
                     Mandatory="No">
               <def:WhereClauseRef WhereClauseOID="WC.LB.LBTESTCD.GLUC.LB.LBCAT.4.LB.LBSCAT.8"/>
            </ItemRef>
            <ItemRef ItemOID="IT.LB.LBORRES.LB.LBTESTCD.GLUC.LB.LBCAT.CHEMISTRY" OrderNumber="34"
                     Mandatory="No">
               <def:WhereClauseRef WhereClauseOID="WC.LB.LBTESTCD.GLUC.LB.LBCAT.CHEMISTRY"/>
            </ItemRef>
            <ItemRef ItemOID="IT.LB.LBORRES.LB.LBTESTCD.HBCAB.LB.LBCAT.3.LB.LBSCAT.4"
                     OrderNumber="35"
                     Mandatory="No">
               <def:WhereClauseRef WhereClauseOID="WC.LB.LBTESTCD.HBCAB.LB.LBCAT.3.LB.LBSCAT.4"/>
            </ItemRef>
            <ItemRef ItemOID="IT.LB.LBORRES.LB.LBTESTCD.HBCABSC.LB.LBCAT.3" OrderNumber="36"
                     Mandatory="No">
               <def:WhereClauseRef WhereClauseOID="WC.LB.LBTESTCD.HBCABSC.LB.LBCAT.3"/>
            </ItemRef>
            <ItemRef ItemOID="IT.LB.LBORRES.LB.LBTESTCD.HBSAB.LB.LBCAT.3.LB.LBSCAT.4"
                     OrderNumber="37"
                     Mandatory="No">
               <def:WhereClauseRef WhereClauseOID="WC.LB.LBTESTCD.HBSAB.LB.LBCAT.3.LB.LBSCAT.4"/>
            </ItemRef>
            <ItemRef ItemOID="IT.LB.LBORRES.LB.LBTESTCD.HBSAB.LB.LBCAT.OTHER.LB.LBSCAT.QUALITATIVE"
                     OrderNumber="38"
                     Mandatory="No">
               <def:WhereClauseRef WhereClauseOID="WC.LB.LBTESTCD.HBSAB.LB.LBCAT.OTHER.LB.LBSCAT.QUALITATIVE"/>
            </ItemRef>
            <ItemRef ItemOID="IT.LB.LBORRES.LB.LBTESTCD.HBSAG.LB.LBCAT.3.LB.LBSCAT.4"
                     OrderNumber="39"
                     Mandatory="No">
               <def:WhereClauseRef WhereClauseOID="WC.LB.LBTESTCD.HBSAG.LB.LBCAT.3.LB.LBSCAT.4"/>
            </ItemRef>
            <ItemRef ItemOID="IT.LB.LBORRES.LB.LBTESTCD.HBSAG.LB.LBCAT.OTHER.LB.LBSCAT.QUALITATIVE"
                     OrderNumber="40"
                     Mandatory="No">
               <def:WhereClauseRef WhereClauseOID="WC.LB.LBTESTCD.HBSAG.LB.LBCAT.OTHER.LB.LBSCAT.QUALITATIVE"/>
            </ItemRef>
            <ItemRef ItemOID="IT.LB.LBORRES.LB.LBTESTCD.HCAB.LB.LBCAT.3.LB.LBSCAT.4"
                     OrderNumber="41"
                     Mandatory="No">
               <def:WhereClauseRef WhereClauseOID="WC.LB.LBTESTCD.HCAB.LB.LBCAT.3.LB.LBSCAT.4"/>
            </ItemRef>
            <ItemRef ItemOID="IT.LB.LBORRES.LB.LBTESTCD.HCAB.LB.LBCAT.OTHER.LB.LBSCAT.QUALITATIVE"
                     OrderNumber="42"
                     Mandatory="No">
               <def:WhereClauseRef WhereClauseOID="WC.LB.LBTESTCD.HCAB.LB.LBCAT.OTHER.LB.LBSCAT.QUALITATIVE"/>
            </ItemRef>
            <ItemRef ItemOID="IT.LB.LBORRES.LB.LBTESTCD.HCG.LB.LBCAT.4" OrderNumber="43"
                     Mandatory="No">
               <def:WhereClauseRef WhereClauseOID="WC.LB.LBTESTCD.HCG.LB.LBCAT.4"/>
            </ItemRef>
            <ItemRef ItemOID="IT.LB.LBORRES.LB.LBTESTCD.HCGNDI.LB.LBCAT.3" OrderNumber="44"
                     Mandatory="No">
               <def:WhereClauseRef WhereClauseOID="WC.LB.LBTESTCD.HCGNDI.LB.LBCAT.3"/>
            </ItemRef>
            <ItemRef ItemOID="IT.LB.LBORRES.LB.LBTESTCD.HCT.LB.LBCAT.2" OrderNumber="45"
                     Mandatory="No">
               <def:WhereClauseRef WhereClauseOID="WC.LB.LBTESTCD.HCT.LB.LBCAT.2"/>
            </ItemRef>
            <ItemRef ItemOID="IT.LB.LBORRES.LB.LBTESTCD.HGB.LB.LBCAT.2" OrderNumber="46"
                     Mandatory="No">
               <def:WhereClauseRef WhereClauseOID="WC.LB.LBTESTCD.HGB.LB.LBCAT.2"/>
            </ItemRef>
            <ItemRef ItemOID="IT.LB.LBORRES.LB.LBTESTCD.HIVAB.LB.LBCAT.3.LB.LBSCAT.4"
                     OrderNumber="47"
                     Mandatory="No">
               <def:WhereClauseRef WhereClauseOID="WC.LB.LBTESTCD.HIVAB.LB.LBCAT.3.LB.LBSCAT.4"/>
            </ItemRef>
            <ItemRef ItemOID="IT.LB.LBORRES.LB.LBTESTCD.IFNG.LB.LBCAT.3.LB.LBSCAT.2"
                     OrderNumber="48"
                     Mandatory="No">
               <def:WhereClauseRef WhereClauseOID="WC.LB.LBTESTCD.IFNG.LB.LBCAT.3.LB.LBSCAT.2"/>
            </ItemRef>
            <ItemRef ItemOID="IT.LB.LBORRES.LB.LBTESTCD.IFNG.LB.LBCAT.OTHER.LB.LBSCAT.PANELB"
                     OrderNumber="49"
                     Mandatory="No">
               <def:WhereClauseRef WhereClauseOID="WC.LB.LBTESTCD.IFNG.LB.LBCAT.OTHER.LB.LBSCAT.PANELB"/>
            </ItemRef>
            <ItemRef ItemOID="IT.LB.LBORRES.LB.LBTESTCD.IFNG.LB.LBCAT.OTHER.LB.LBSCAT.QUALITATIVE"
                     OrderNumber="50"
                     Mandatory="No">
               <def:WhereClauseRef WhereClauseOID="WC.LB.LBTESTCD.IFNG.LB.LBCAT.OTHER.LB.LBSCAT.QUALITATIVE"/>
            </ItemRef>
            <ItemRef ItemOID="IT.LB.LBORRES.LB.LBTESTCD.INR.LB.LBCAT.2" OrderNumber="51"
                     Mandatory="No">
               <def:WhereClauseRef WhereClauseOID="WC.LB.LBTESTCD.INR.LB.LBCAT.2"/>
            </ItemRef>
            <ItemRef ItemOID="IT.LB.LBORRES.LB.LBTESTCD.K.LB.LBCAT.1" OrderNumber="52"
                     Mandatory="No">
               <def:WhereClauseRef WhereClauseOID="WC.LB.LBTESTCD.K.LB.LBCAT.1"/>
            </ItemRef>
            <ItemRef ItemOID="IT.LB.LBORRES.LB.LBTESTCD.KETONES.LB.LBCAT.4.LB.LBSCAT.8"
                     OrderNumber="53"
                     Mandatory="No">
               <def:WhereClauseRef WhereClauseOID="WC.LB.LBTESTCD.KETONES.LB.LBCAT.4.LB.LBSCAT.8"/>
            </ItemRef>
            <ItemRef ItemOID="IT.LB.LBORRES.LB.LBTESTCD.LDH.LB.LBCAT.1" OrderNumber="54"
                     Mandatory="No">
               <def:WhereClauseRef WhereClauseOID="WC.LB.LBTESTCD.LDH.LB.LBCAT.1"/>
            </ItemRef>
            <ItemRef ItemOID="IT.LB.LBORRES.LB.LBTESTCD.LEUKASE.LB.LBCAT.4.LB.LBSCAT.8"
                     OrderNumber="55"
                     Mandatory="No">
               <def:WhereClauseRef WhereClauseOID="WC.LB.LBTESTCD.LEUKASE.LB.LBCAT.4.LB.LBSCAT.8"/>
            </ItemRef>
            <ItemRef ItemOID="IT.LB.LBORRES.LB.LBTESTCD.LIPASET.LB.LBCAT.1" OrderNumber="56"
                     Mandatory="No">
               <def:WhereClauseRef WhereClauseOID="WC.LB.LBTESTCD.LIPASET.LB.LBCAT.1"/>
            </ItemRef>
            <ItemRef ItemOID="IT.LB.LBORRES.LB.LBTESTCD.LRG1.LB.LBCAT.3" OrderNumber="57"
                     Mandatory="No">
               <def:WhereClauseRef WhereClauseOID="WC.LB.LBTESTCD.LRG1.LB.LBCAT.3"/>
            </ItemRef>
            <ItemRef ItemOID="IT.LB.LBORRES.LB.LBTESTCD.LYM.LB.LBCAT.2" OrderNumber="58"
                     Mandatory="No">
               <def:WhereClauseRef WhereClauseOID="WC.LB.LBTESTCD.LYM.LB.LBCAT.2"/>
            </ItemRef>
            <ItemRef ItemOID="IT.LB.LBORRES.LB.LBTESTCD.LYMLE.LB.LBCAT.2" OrderNumber="59"
                     Mandatory="No">
               <def:WhereClauseRef WhereClauseOID="WC.LB.LBTESTCD.LYMLE.LB.LBCAT.2"/>
            </ItemRef>
            <ItemRef ItemOID="IT.LB.LBORRES.LB.LBTESTCD.MG.LB.LBCAT.1" OrderNumber="60"
                     Mandatory="No">
               <def:WhereClauseRef WhereClauseOID="WC.LB.LBTESTCD.MG.LB.LBCAT.1"/>
            </ItemRef>
            <ItemRef ItemOID="IT.LB.LBORRES.LB.LBTESTCD.MONO.LB.LBCAT.2" OrderNumber="61"
                     Mandatory="No">
               <def:WhereClauseRef WhereClauseOID="WC.LB.LBTESTCD.MONO.LB.LBCAT.2"/>
            </ItemRef>
            <ItemRef ItemOID="IT.LB.LBORRES.LB.LBTESTCD.MONOLE.LB.LBCAT.2" OrderNumber="62"
                     Mandatory="No">
               <def:WhereClauseRef WhereClauseOID="WC.LB.LBTESTCD.MONOLE.LB.LBCAT.2"/>
            </ItemRef>
            <ItemRef ItemOID="IT.LB.LBORRES.LB.LBTESTCD.MUCTHR.LB.LBCAT.4" OrderNumber="63"
                     Mandatory="No">
               <def:WhereClauseRef WhereClauseOID="WC.LB.LBTESTCD.MUCTHR.LB.LBCAT.4"/>
            </ItemRef>
            <ItemRef ItemOID="IT.LB.LBORRES.LB.LBTESTCD.NEUT.LB.LBCAT.2" OrderNumber="64"
                     Mandatory="No">
               <def:WhereClauseRef WhereClauseOID="WC.LB.LBTESTCD.NEUT.LB.LBCAT.2"/>
            </ItemRef>
            <ItemRef ItemOID="IT.LB.LBORRES.LB.LBTESTCD.NEUTLE.LB.LBCAT.2" OrderNumber="65"
                     Mandatory="No">
               <def:WhereClauseRef WhereClauseOID="WC.LB.LBTESTCD.NEUTLE.LB.LBCAT.2"/>
            </ItemRef>
            <ItemRef ItemOID="IT.LB.LBORRES.LB.LBTESTCD.NITRITE.LB.LBCAT.4.LB.LBSCAT.8"
                     OrderNumber="66"
                     Mandatory="No">
               <def:WhereClauseRef WhereClauseOID="WC.LB.LBTESTCD.NITRITE.LB.LBCAT.4.LB.LBSCAT.8"/>
            </ItemRef>
            <ItemRef ItemOID="IT.LB.LBORRES.LB.LBTESTCD.OCCBLD.LB.LBCAT.4.LB.LBSCAT.8"
                     OrderNumber="67"
                     Mandatory="No">
               <def:WhereClauseRef WhereClauseOID="WC.LB.LBTESTCD.OCCBLD.LB.LBCAT.4.LB.LBSCAT.8"/>
            </ItemRef>
            <ItemRef ItemOID="IT.LB.LBORRES.LB.LBTESTCD.PH.LB.LBCAT.4" OrderNumber="68"
                     Mandatory="No">
               <def:WhereClauseRef WhereClauseOID="WC.LB.LBTESTCD.PH.LB.LBCAT.4"/>
            </ItemRef>
            <ItemRef ItemOID="IT.LB.LBORRES.LB.LBTESTCD.PHOS.LB.LBCAT.1" OrderNumber="69"
                     Mandatory="No">
               <def:WhereClauseRef WhereClauseOID="WC.LB.LBTESTCD.PHOS.LB.LBCAT.1"/>
            </ItemRef>
            <ItemRef ItemOID="IT.LB.LBORRES.LB.LBTESTCD.PLAT.LB.LBCAT.2" OrderNumber="70"
                     Mandatory="No">
               <def:WhereClauseRef WhereClauseOID="WC.LB.LBTESTCD.PLAT.LB.LBCAT.2"/>
            </ItemRef>
            <ItemRef ItemOID="IT.LB.LBORRES.LB.LBTESTCD.PROT.LB.LBCAT.4.LB.LBSCAT.8"
                     OrderNumber="71"
                     Mandatory="No">
               <def:WhereClauseRef WhereClauseOID="WC.LB.LBTESTCD.PROT.LB.LBCAT.4.LB.LBSCAT.8"/>
            </ItemRef>
            <ItemRef ItemOID="IT.LB.LBORRES.LB.LBTESTCD.PROT.LB.LBCAT.CHEMISTRY" OrderNumber="72"
                     Mandatory="No">
               <def:WhereClauseRef WhereClauseOID="WC.LB.LBTESTCD.PROT.LB.LBCAT.CHEMISTRY"/>
            </ItemRef>
            <ItemRef ItemOID="IT.LB.LBORRES.LB.LBTESTCD.PT.LB.LBCAT.2" OrderNumber="73"
                     Mandatory="No">
               <def:WhereClauseRef WhereClauseOID="WC.LB.LBTESTCD.PT.LB.LBCAT.2"/>
            </ItemRef>
            <ItemRef ItemOID="IT.LB.LBORRES.LB.LBTESTCD.RBC.LB.LBCAT.2" OrderNumber="74"
                     Mandatory="No">
               <def:WhereClauseRef WhereClauseOID="WC.LB.LBTESTCD.RBC.LB.LBCAT.2"/>
            </ItemRef>
            <ItemRef ItemOID="IT.LB.LBORRES.LB.LBTESTCD.RBC.LB.LBCAT.URINALYSIS" OrderNumber="75"
                     Mandatory="No">
               <def:WhereClauseRef WhereClauseOID="WC.LB.LBTESTCD.RBC.LB.LBCAT.URINALYSIS"/>
            </ItemRef>
            <ItemRef ItemOID="IT.LB.LBORRES.LB.LBTESTCD.SODIUM.LB.LBCAT.1" OrderNumber="76"
                     Mandatory="No">
               <def:WhereClauseRef WhereClauseOID="WC.LB.LBTESTCD.SODIUM.LB.LBCAT.1"/>
            </ItemRef>
            <ItemRef ItemOID="IT.LB.LBORRES.LB.LBTESTCD.SPGRAV.LB.LBCAT.4" OrderNumber="77"
                     Mandatory="No">
               <def:WhereClauseRef WhereClauseOID="WC.LB.LBTESTCD.SPGRAV.LB.LBCAT.4"/>
            </ItemRef>
            <ItemRef ItemOID="IT.LB.LBORRES.LB.LBTESTCD.URATE.LB.LBCAT.1" OrderNumber="78"
                     Mandatory="No">
               <def:WhereClauseRef WhereClauseOID="WC.LB.LBTESTCD.URATE.LB.LBCAT.1"/>
            </ItemRef>
            <ItemRef ItemOID="IT.LB.LBORRES.LB.LBTESTCD.UREAN.LB.LBCAT.1" OrderNumber="79"
                     Mandatory="No">
               <def:WhereClauseRef WhereClauseOID="WC.LB.LBTESTCD.UREAN.LB.LBCAT.1"/>
            </ItemRef>
            <ItemRef ItemOID="IT.LB.LBORRES.LB.LBTESTCD.WBC.LB.LBCAT.2" OrderNumber="80"
                     Mandatory="No">
               <def:WhereClauseRef WhereClauseOID="WC.LB.LBTESTCD.WBC.LB.LBCAT.2"/>
            </ItemRef>
            <ItemRef ItemOID="IT.LB.LBORRES.LB.LBTESTCD.WBC.LB.LBCAT.URINALYSIS" OrderNumber="81"
                     Mandatory="No">
               <def:WhereClauseRef WhereClauseOID="WC.LB.LBTESTCD.WBC.LB.LBCAT.URINALYSIS"/>
            </ItemRef>
            <ItemRef ItemOID="IT.LB.LBORRES.LB.LBTESTCD.YEAST.LB.LBCAT.4" OrderNumber="82"
                     Mandatory="No">
               <def:WhereClauseRef WhereClauseOID="WC.LB.LBTESTCD.YEAST.LB.LBCAT.4"/>
            </ItemRef>
         </def:ValueListDef>
         <def:ValueListDef OID="VL.LB.LBSPEC">
            <ItemRef ItemOID="IT.LB.LBSPEC.LB.LBNAM.LSIM" OrderNumber="1" Mandatory="No">
               <def:WhereClauseRef WhereClauseOID="WC.LB.LBNAM.LSIM"/>
            </ItemRef>
            <ItemRef ItemOID="IT.LB.LBSPEC.LB.LBNAM.NOTLSIM" OrderNumber="2" Mandatory="No">
               <def:WhereClauseRef WhereClauseOID="WC.LB.LBNAM.NOTLSIM"/>
            </ItemRef>
         </def:ValueListDef>
         <def:ValueListDef OID="VL.LB.LBSTAT">
            <ItemRef ItemOID="IT.LB.LBSTAT.LB.LBNAM.LSIM" OrderNumber="1" Mandatory="No">
               <def:WhereClauseRef WhereClauseOID="WC.LB.LBNAM.LSIM"/>
            </ItemRef>
            <ItemRef ItemOID="IT.LB.LBSTAT.LB.LBNAM.NOTLSIM" OrderNumber="2" Mandatory="No">
               <def:WhereClauseRef WhereClauseOID="WC.LB.LBNAM.NOTLSIM"/>
            </ItemRef>
         </def:ValueListDef>
         <def:ValueListDef OID="VL.LB.LBSTRESC">
            <ItemRef ItemOID="IT.LB.LBSTRESC.LB.LBTESTCD.ALB.LB.LBCAT.1" OrderNumber="1"
                     Mandatory="No">
               <def:WhereClauseRef WhereClauseOID="WC.LB.LBTESTCD.ALB.LB.LBCAT.1"/>
            </ItemRef>
            <ItemRef ItemOID="IT.LB.LBSTRESC.LB.LBTESTCD.ALP.LB.LBCAT.1" OrderNumber="2"
                     Mandatory="No">
               <def:WhereClauseRef WhereClauseOID="WC.LB.LBTESTCD.ALP.LB.LBCAT.1"/>
            </ItemRef>
            <ItemRef ItemOID="IT.LB.LBSTRESC.LB.LBTESTCD.ALT.LB.LBCAT.1" OrderNumber="3"
                     Mandatory="No">
               <def:WhereClauseRef WhereClauseOID="WC.LB.LBTESTCD.ALT.LB.LBCAT.1"/>
            </ItemRef>
            <ItemRef ItemOID="IT.LB.LBSTRESC.LB.LBTESTCD.AMYLASE.LB.LBCAT.1" OrderNumber="4"
                     Mandatory="No">
               <def:WhereClauseRef WhereClauseOID="WC.LB.LBTESTCD.AMYLASE.LB.LBCAT.1"/>
            </ItemRef>
            <ItemRef ItemOID="IT.LB.LBSTRESC.LB.LBTESTCD.APTT.LB.LBCAT.2" OrderNumber="5"
                     Mandatory="No">
               <def:WhereClauseRef WhereClauseOID="WC.LB.LBTESTCD.APTT.LB.LBCAT.2"/>
            </ItemRef>
            <ItemRef ItemOID="IT.LB.LBSTRESC.LB.LBTESTCD.AST.LB.LBCAT.1" OrderNumber="6"
                     Mandatory="No">
               <def:WhereClauseRef WhereClauseOID="WC.LB.LBTESTCD.AST.LB.LBCAT.1"/>
            </ItemRef>
            <ItemRef ItemOID="IT.LB.LBSTRESC.LB.LBTESTCD.BACT.LB.LBCAT.4" OrderNumber="7"
                     Mandatory="No">
               <def:WhereClauseRef WhereClauseOID="WC.LB.LBTESTCD.BACT.LB.LBCAT.4"/>
            </ItemRef>
            <ItemRef ItemOID="IT.LB.LBSTRESC.LB.LBTESTCD.BASO.LB.LBCAT.2" OrderNumber="8"
                     Mandatory="No">
               <def:WhereClauseRef WhereClauseOID="WC.LB.LBTESTCD.BASO.LB.LBCAT.2"/>
            </ItemRef>
            <ItemRef ItemOID="IT.LB.LBSTRESC.LB.LBTESTCD.BASOLE.LB.LBCAT.2" OrderNumber="9"
                     Mandatory="No">
               <def:WhereClauseRef WhereClauseOID="WC.LB.LBTESTCD.BASOLE.LB.LBCAT.2"/>
            </ItemRef>
            <ItemRef ItemOID="IT.LB.LBSTRESC.LB.LBTESTCD.BILDIR.LB.LBCAT.1" OrderNumber="10"
                     Mandatory="No">
               <def:WhereClauseRef WhereClauseOID="WC.LB.LBTESTCD.BILDIR.LB.LBCAT.1"/>
            </ItemRef>
            <ItemRef ItemOID="IT.LB.LBSTRESC.LB.LBTESTCD.BILI.LB.LBCAT.4.LB.LBSCAT.8"
                     OrderNumber="11"
                     Mandatory="No">
               <def:WhereClauseRef WhereClauseOID="WC.LB.LBTESTCD.BILI.LB.LBCAT.4.LB.LBSCAT.8"/>
            </ItemRef>
            <ItemRef ItemOID="IT.LB.LBSTRESC.LB.LBTESTCD.BILI.LB.LBCAT.CHEMISTRY" OrderNumber="12"
                     Mandatory="No">
               <def:WhereClauseRef WhereClauseOID="WC.LB.LBTESTCD.BILI.LB.LBCAT.CHEMISTRY"/>
            </ItemRef>
            <ItemRef ItemOID="IT.LB.LBSTRESC.LB.LBTESTCD.CA.LB.LBCAT.1" OrderNumber="13"
                     Mandatory="No">
               <def:WhereClauseRef WhereClauseOID="WC.LB.LBTESTCD.CA.LB.LBCAT.1"/>
            </ItemRef>
            <ItemRef ItemOID="IT.LB.LBSTRESC.LB.LBTESTCD.CALPRO.LB.LBCAT.3" OrderNumber="14"
                     Mandatory="No">
               <def:WhereClauseRef WhereClauseOID="WC.LB.LBTESTCD.CALPRO.LB.LBCAT.3"/>
            </ItemRef>
            <ItemRef ItemOID="IT.LB.LBSTRESC.LB.LBTESTCD.CK.LB.LBCAT.1" OrderNumber="15"
                     Mandatory="No">
               <def:WhereClauseRef WhereClauseOID="WC.LB.LBTESTCD.CK.LB.LBCAT.1"/>
            </ItemRef>
            <ItemRef ItemOID="IT.LB.LBSTRESC.LB.LBTESTCD.CL.LB.LBCAT.1" OrderNumber="16"
                     Mandatory="No">
               <def:WhereClauseRef WhereClauseOID="WC.LB.LBTESTCD.CL.LB.LBCAT.1"/>
            </ItemRef>
            <ItemRef ItemOID="IT.LB.LBSTRESC.LB.LBTESTCD.CREAT.LB.LBCAT.1" OrderNumber="17"
                     Mandatory="No">
               <def:WhereClauseRef WhereClauseOID="WC.LB.LBTESTCD.CREAT.LB.LBCAT.1"/>
            </ItemRef>
            <ItemRef ItemOID="IT.LB.LBSTRESC.LB.LBTESTCD.CRP.LB.LBCAT.3" OrderNumber="18"
                     Mandatory="No">
               <def:WhereClauseRef WhereClauseOID="WC.LB.LBTESTCD.CRP.LB.LBCAT.3"/>
            </ItemRef>
            <ItemRef ItemOID="IT.LB.LBSTRESC.LB.LBTESTCD.CSGRAN.LB.LBCAT.4" OrderNumber="19"
                     Mandatory="No">
               <def:WhereClauseRef WhereClauseOID="WC.LB.LBTESTCD.CSGRAN.LB.LBCAT.4"/>
            </ItemRef>
            <ItemRef ItemOID="IT.LB.LBSTRESC.LB.LBTESTCD.CSHYAL.LB.LBCAT.4" OrderNumber="20"
                     Mandatory="No">
               <def:WhereClauseRef WhereClauseOID="WC.LB.LBTESTCD.CSHYAL.LB.LBCAT.4"/>
            </ItemRef>
            <ItemRef ItemOID="IT.LB.LBSTRESC.LB.LBTESTCD.CSRBC.LB.LBCAT.4" OrderNumber="21"
                     Mandatory="No">
               <def:WhereClauseRef WhereClauseOID="WC.LB.LBTESTCD.CSRBC.LB.LBCAT.4"/>
            </ItemRef>
            <ItemRef ItemOID="IT.LB.LBSTRESC.LB.LBTESTCD.CYAMMBIU.LB.LBCAT.4" OrderNumber="22"
                     Mandatory="No">
               <def:WhereClauseRef WhereClauseOID="WC.LB.LBTESTCD.CYAMMBIU.LB.LBCAT.4"/>
            </ItemRef>
            <ItemRef ItemOID="IT.LB.LBSTRESC.LB.LBTESTCD.CYCAOXA.LB.LBCAT.4" OrderNumber="23"
                     Mandatory="No">
               <def:WhereClauseRef WhereClauseOID="WC.LB.LBTESTCD.CYCAOXA.LB.LBCAT.4"/>
            </ItemRef>
            <ItemRef ItemOID="IT.LB.LBSTRESC.LB.LBTESTCD.CYTRPHOS.LB.LBCAT.4" OrderNumber="24"
                     Mandatory="No">
               <def:WhereClauseRef WhereClauseOID="WC.LB.LBTESTCD.CYTRPHOS.LB.LBCAT.4"/>
            </ItemRef>
            <ItemRef ItemOID="IT.LB.LBSTRESC.LB.LBTESTCD.CYURIAC.LB.LBCAT.4" OrderNumber="25"
                     Mandatory="No">
               <def:WhereClauseRef WhereClauseOID="WC.LB.LBTESTCD.CYURIAC.LB.LBCAT.4"/>
            </ItemRef>
            <ItemRef ItemOID="IT.LB.LBSTRESC.LB.LBTESTCD.EOS.LB.LBCAT.2" OrderNumber="26"
                     Mandatory="No">
               <def:WhereClauseRef WhereClauseOID="WC.LB.LBTESTCD.EOS.LB.LBCAT.2"/>
            </ItemRef>
            <ItemRef ItemOID="IT.LB.LBSTRESC.LB.LBTESTCD.EOSLE.LB.LBCAT.2" OrderNumber="27"
                     Mandatory="No">
               <def:WhereClauseRef WhereClauseOID="WC.LB.LBTESTCD.EOSLE.LB.LBCAT.2"/>
            </ItemRef>
            <ItemRef ItemOID="IT.LB.LBSTRESC.LB.LBTESTCD.EPISQCE.LB.LBCAT.4" OrderNumber="28"
                     Mandatory="No">
               <def:WhereClauseRef WhereClauseOID="WC.LB.LBTESTCD.EPISQCE.LB.LBCAT.4"/>
            </ItemRef>
            <ItemRef ItemOID="IT.LB.LBSTRESC.LB.LBTESTCD.EPITCE.LB.LBCAT.4" OrderNumber="29"
                     Mandatory="No">
               <def:WhereClauseRef WhereClauseOID="WC.LB.LBTESTCD.EPITCE.LB.LBCAT.4"/>
            </ItemRef>
            <ItemRef ItemOID="IT.LB.LBSTRESC.LB.LBTESTCD.EPITUCE.LB.LBCAT.4" OrderNumber="30"
                     Mandatory="No">
               <def:WhereClauseRef WhereClauseOID="WC.LB.LBTESTCD.EPITUCE.LB.LBCAT.4"/>
            </ItemRef>
            <ItemRef ItemOID="IT.LB.LBSTRESC.LB.LBTESTCD.FSH.LB.LBCAT.3" OrderNumber="31"
                     Mandatory="No">
               <def:WhereClauseRef WhereClauseOID="WC.LB.LBTESTCD.FSH.LB.LBCAT.3"/>
            </ItemRef>
            <ItemRef ItemOID="IT.LB.LBSTRESC.LB.LBTESTCD.GGT.LB.LBCAT.1" OrderNumber="32"
                     Mandatory="No">
               <def:WhereClauseRef WhereClauseOID="WC.LB.LBTESTCD.GGT.LB.LBCAT.1"/>
            </ItemRef>
            <ItemRef ItemOID="IT.LB.LBSTRESC.LB.LBTESTCD.GLUC.LB.LBCAT.4.LB.LBSCAT.8"
                     OrderNumber="33"
                     Mandatory="No">
               <def:WhereClauseRef WhereClauseOID="WC.LB.LBTESTCD.GLUC.LB.LBCAT.4.LB.LBSCAT.8"/>
            </ItemRef>
            <ItemRef ItemOID="IT.LB.LBSTRESC.LB.LBTESTCD.GLUC.LB.LBCAT.CHEMISTRY" OrderNumber="34"
                     Mandatory="No">
               <def:WhereClauseRef WhereClauseOID="WC.LB.LBTESTCD.GLUC.LB.LBCAT.CHEMISTRY"/>
            </ItemRef>
            <ItemRef ItemOID="IT.LB.LBSTRESC.LB.LBTESTCD.HBCAB.LB.LBCAT.3.LB.LBSCAT.4"
                     OrderNumber="35"
                     Mandatory="No">
               <def:WhereClauseRef WhereClauseOID="WC.LB.LBTESTCD.HBCAB.LB.LBCAT.3.LB.LBSCAT.4"/>
            </ItemRef>
            <ItemRef ItemOID="IT.LB.LBSTRESC.LB.LBTESTCD.HBCABSC.LB.LBCAT.3" OrderNumber="36"
                     Mandatory="No">
               <def:WhereClauseRef WhereClauseOID="WC.LB.LBTESTCD.HBCABSC.LB.LBCAT.3"/>
            </ItemRef>
            <ItemRef ItemOID="IT.LB.LBSTRESC.LB.LBTESTCD.HBSAB.LB.LBCAT.3.LB.LBSCAT.4"
                     OrderNumber="37"
                     Mandatory="No">
               <def:WhereClauseRef WhereClauseOID="WC.LB.LBTESTCD.HBSAB.LB.LBCAT.3.LB.LBSCAT.4"/>
            </ItemRef>
            <ItemRef ItemOID="IT.LB.LBSTRESC.LB.LBTESTCD.HBSAB.LB.LBCAT.OTHER.LB.LBSCAT.QUALITATIVE"
                     OrderNumber="38"
                     Mandatory="No">
               <def:WhereClauseRef WhereClauseOID="WC.LB.LBTESTCD.HBSAB.LB.LBCAT.OTHER.LB.LBSCAT.QUALITATIVE"/>
            </ItemRef>
            <ItemRef ItemOID="IT.LB.LBSTRESC.LB.LBTESTCD.HBSAG.LB.LBCAT.3.LB.LBSCAT.4"
                     OrderNumber="39"
                     Mandatory="No">
               <def:WhereClauseRef WhereClauseOID="WC.LB.LBTESTCD.HBSAG.LB.LBCAT.3.LB.LBSCAT.4"/>
            </ItemRef>
            <ItemRef ItemOID="IT.LB.LBSTRESC.LB.LBTESTCD.HBSAG.LB.LBCAT.OTHER.LB.LBSCAT.QUALITATIVE"
                     OrderNumber="40"
                     Mandatory="No">
               <def:WhereClauseRef WhereClauseOID="WC.LB.LBTESTCD.HBSAG.LB.LBCAT.OTHER.LB.LBSCAT.QUALITATIVE"/>
            </ItemRef>
            <ItemRef ItemOID="IT.LB.LBSTRESC.LB.LBTESTCD.HCAB.LB.LBCAT.3.LB.LBSCAT.4"
                     OrderNumber="41"
                     Mandatory="No">
               <def:WhereClauseRef WhereClauseOID="WC.LB.LBTESTCD.HCAB.LB.LBCAT.3.LB.LBSCAT.4"/>
            </ItemRef>
            <ItemRef ItemOID="IT.LB.LBSTRESC.LB.LBTESTCD.HCAB.LB.LBCAT.OTHER.LB.LBSCAT.QUALITATIVE"
                     OrderNumber="42"
                     Mandatory="No">
               <def:WhereClauseRef WhereClauseOID="WC.LB.LBTESTCD.HCAB.LB.LBCAT.OTHER.LB.LBSCAT.QUALITATIVE"/>
            </ItemRef>
            <ItemRef ItemOID="IT.LB.LBSTRESC.LB.LBTESTCD.HCG.LB.LBCAT.4" OrderNumber="43"
                     Mandatory="No">
               <def:WhereClauseRef WhereClauseOID="WC.LB.LBTESTCD.HCG.LB.LBCAT.4"/>
            </ItemRef>
            <ItemRef ItemOID="IT.LB.LBSTRESC.LB.LBTESTCD.HCGNDI.LB.LBCAT.3" OrderNumber="44"
                     Mandatory="No">
               <def:WhereClauseRef WhereClauseOID="WC.LB.LBTESTCD.HCGNDI.LB.LBCAT.3"/>
            </ItemRef>
            <ItemRef ItemOID="IT.LB.LBSTRESC.LB.LBTESTCD.HCT.LB.LBCAT.2" OrderNumber="45"
                     Mandatory="No">
               <def:WhereClauseRef WhereClauseOID="WC.LB.LBTESTCD.HCT.LB.LBCAT.2"/>
            </ItemRef>
            <ItemRef ItemOID="IT.LB.LBSTRESC.LB.LBTESTCD.HGB.LB.LBCAT.2" OrderNumber="46"
                     Mandatory="No">
               <def:WhereClauseRef WhereClauseOID="WC.LB.LBTESTCD.HGB.LB.LBCAT.2"/>
            </ItemRef>
            <ItemRef ItemOID="IT.LB.LBSTRESC.LB.LBTESTCD.HIVAB.LB.LBCAT.3.LB.LBSCAT.4"
                     OrderNumber="47"
                     Mandatory="No">
               <def:WhereClauseRef WhereClauseOID="WC.LB.LBTESTCD.HIVAB.LB.LBCAT.3.LB.LBSCAT.4"/>
            </ItemRef>
            <ItemRef ItemOID="IT.LB.LBSTRESC.LB.LBTESTCD.IFNG.LB.LBCAT.3.LB.LBSCAT.2"
                     OrderNumber="48"
                     Mandatory="No">
               <def:WhereClauseRef WhereClauseOID="WC.LB.LBTESTCD.IFNG.LB.LBCAT.3.LB.LBSCAT.2"/>
            </ItemRef>
            <ItemRef ItemOID="IT.LB.LBSTRESC.LB.LBTESTCD.IFNG.LB.LBCAT.OTHER.LB.LBSCAT.PANELB"
                     OrderNumber="49"
                     Mandatory="No">
               <def:WhereClauseRef WhereClauseOID="WC.LB.LBTESTCD.IFNG.LB.LBCAT.OTHER.LB.LBSCAT.PANELB"/>
            </ItemRef>
            <ItemRef ItemOID="IT.LB.LBSTRESC.LB.LBTESTCD.IFNG.LB.LBCAT.OTHER.LB.LBSCAT.QUALITATIVE"
                     OrderNumber="50"
                     Mandatory="No">
               <def:WhereClauseRef WhereClauseOID="WC.LB.LBTESTCD.IFNG.LB.LBCAT.OTHER.LB.LBSCAT.QUALITATIVE"/>
            </ItemRef>
            <ItemRef ItemOID="IT.LB.LBSTRESC.LB.LBTESTCD.INR.LB.LBCAT.2" OrderNumber="51"
                     Mandatory="No">
               <def:WhereClauseRef WhereClauseOID="WC.LB.LBTESTCD.INR.LB.LBCAT.2"/>
            </ItemRef>
            <ItemRef ItemOID="IT.LB.LBSTRESC.LB.LBTESTCD.K.LB.LBCAT.1" OrderNumber="52"
                     Mandatory="No">
               <def:WhereClauseRef WhereClauseOID="WC.LB.LBTESTCD.K.LB.LBCAT.1"/>
            </ItemRef>
            <ItemRef ItemOID="IT.LB.LBSTRESC.LB.LBTESTCD.KETONES.LB.LBCAT.4.LB.LBSCAT.8"
                     OrderNumber="53"
                     Mandatory="No">
               <def:WhereClauseRef WhereClauseOID="WC.LB.LBTESTCD.KETONES.LB.LBCAT.4.LB.LBSCAT.8"/>
            </ItemRef>
            <ItemRef ItemOID="IT.LB.LBSTRESC.LB.LBTESTCD.LDH.LB.LBCAT.1" OrderNumber="54"
                     Mandatory="No">
               <def:WhereClauseRef WhereClauseOID="WC.LB.LBTESTCD.LDH.LB.LBCAT.1"/>
            </ItemRef>
            <ItemRef ItemOID="IT.LB.LBSTRESC.LB.LBTESTCD.LEUKASE.LB.LBCAT.4.LB.LBSCAT.8"
                     OrderNumber="55"
                     Mandatory="No">
               <def:WhereClauseRef WhereClauseOID="WC.LB.LBTESTCD.LEUKASE.LB.LBCAT.4.LB.LBSCAT.8"/>
            </ItemRef>
            <ItemRef ItemOID="IT.LB.LBSTRESC.LB.LBTESTCD.LIPASET.LB.LBCAT.1" OrderNumber="56"
                     Mandatory="No">
               <def:WhereClauseRef WhereClauseOID="WC.LB.LBTESTCD.LIPASET.LB.LBCAT.1"/>
            </ItemRef>
            <ItemRef ItemOID="IT.LB.LBSTRESC.LB.LBTESTCD.LRG1.LB.LBCAT.3" OrderNumber="57"
                     Mandatory="No">
               <def:WhereClauseRef WhereClauseOID="WC.LB.LBTESTCD.LRG1.LB.LBCAT.3"/>
            </ItemRef>
            <ItemRef ItemOID="IT.LB.LBSTRESC.LB.LBTESTCD.LYM.LB.LBCAT.2" OrderNumber="58"
                     Mandatory="No">
               <def:WhereClauseRef WhereClauseOID="WC.LB.LBTESTCD.LYM.LB.LBCAT.2"/>
            </ItemRef>
            <ItemRef ItemOID="IT.LB.LBSTRESC.LB.LBTESTCD.LYMLE.LB.LBCAT.2" OrderNumber="59"
                     Mandatory="No">
               <def:WhereClauseRef WhereClauseOID="WC.LB.LBTESTCD.LYMLE.LB.LBCAT.2"/>
            </ItemRef>
            <ItemRef ItemOID="IT.LB.LBSTRESC.LB.LBTESTCD.MG.LB.LBCAT.1" OrderNumber="60"
                     Mandatory="No">
               <def:WhereClauseRef WhereClauseOID="WC.LB.LBTESTCD.MG.LB.LBCAT.1"/>
            </ItemRef>
            <ItemRef ItemOID="IT.LB.LBSTRESC.LB.LBTESTCD.MONO.LB.LBCAT.2" OrderNumber="61"
                     Mandatory="No">
               <def:WhereClauseRef WhereClauseOID="WC.LB.LBTESTCD.MONO.LB.LBCAT.2"/>
            </ItemRef>
            <ItemRef ItemOID="IT.LB.LBSTRESC.LB.LBTESTCD.MONOLE.LB.LBCAT.2" OrderNumber="62"
                     Mandatory="No">
               <def:WhereClauseRef WhereClauseOID="WC.LB.LBTESTCD.MONOLE.LB.LBCAT.2"/>
            </ItemRef>
            <ItemRef ItemOID="IT.LB.LBSTRESC.LB.LBTESTCD.MUCTHR.LB.LBCAT.4" OrderNumber="63"
                     Mandatory="No">
               <def:WhereClauseRef WhereClauseOID="WC.LB.LBTESTCD.MUCTHR.LB.LBCAT.4"/>
            </ItemRef>
            <ItemRef ItemOID="IT.LB.LBSTRESC.LB.LBTESTCD.NEUT.LB.LBCAT.2" OrderNumber="64"
                     Mandatory="No">
               <def:WhereClauseRef WhereClauseOID="WC.LB.LBTESTCD.NEUT.LB.LBCAT.2"/>
            </ItemRef>
            <ItemRef ItemOID="IT.LB.LBSTRESC.LB.LBTESTCD.NEUTLE.LB.LBCAT.2" OrderNumber="65"
                     Mandatory="No">
               <def:WhereClauseRef WhereClauseOID="WC.LB.LBTESTCD.NEUTLE.LB.LBCAT.2"/>
            </ItemRef>
            <ItemRef ItemOID="IT.LB.LBSTRESC.LB.LBTESTCD.NITRITE.LB.LBCAT.4.LB.LBSCAT.8"
                     OrderNumber="66"
                     Mandatory="No">
               <def:WhereClauseRef WhereClauseOID="WC.LB.LBTESTCD.NITRITE.LB.LBCAT.4.LB.LBSCAT.8"/>
            </ItemRef>
            <ItemRef ItemOID="IT.LB.LBSTRESC.LB.LBTESTCD.OCCBLD.LB.LBCAT.4.LB.LBSCAT.8"
                     OrderNumber="67"
                     Mandatory="No">
               <def:WhereClauseRef WhereClauseOID="WC.LB.LBTESTCD.OCCBLD.LB.LBCAT.4.LB.LBSCAT.8"/>
            </ItemRef>
            <ItemRef ItemOID="IT.LB.LBSTRESC.LB.LBTESTCD.PH.LB.LBCAT.4" OrderNumber="68"
                     Mandatory="No">
               <def:WhereClauseRef WhereClauseOID="WC.LB.LBTESTCD.PH.LB.LBCAT.4"/>
            </ItemRef>
            <ItemRef ItemOID="IT.LB.LBSTRESC.LB.LBTESTCD.PHOS.LB.LBCAT.1" OrderNumber="69"
                     Mandatory="No">
               <def:WhereClauseRef WhereClauseOID="WC.LB.LBTESTCD.PHOS.LB.LBCAT.1"/>
            </ItemRef>
            <ItemRef ItemOID="IT.LB.LBSTRESC.LB.LBTESTCD.PLAT.LB.LBCAT.2" OrderNumber="70"
                     Mandatory="No">
               <def:WhereClauseRef WhereClauseOID="WC.LB.LBTESTCD.PLAT.LB.LBCAT.2"/>
            </ItemRef>
            <ItemRef ItemOID="IT.LB.LBSTRESC.LB.LBTESTCD.PROT.LB.LBCAT.4.LB.LBSCAT.8"
                     OrderNumber="71"
                     Mandatory="No">
               <def:WhereClauseRef WhereClauseOID="WC.LB.LBTESTCD.PROT.LB.LBCAT.4.LB.LBSCAT.8"/>
            </ItemRef>
            <ItemRef ItemOID="IT.LB.LBSTRESC.LB.LBTESTCD.PROT.LB.LBCAT.CHEMISTRY" OrderNumber="72"
                     Mandatory="No">
               <def:WhereClauseRef WhereClauseOID="WC.LB.LBTESTCD.PROT.LB.LBCAT.CHEMISTRY"/>
            </ItemRef>
            <ItemRef ItemOID="IT.LB.LBSTRESC.LB.LBTESTCD.PT.LB.LBCAT.2" OrderNumber="73"
                     Mandatory="No">
               <def:WhereClauseRef WhereClauseOID="WC.LB.LBTESTCD.PT.LB.LBCAT.2"/>
            </ItemRef>
            <ItemRef ItemOID="IT.LB.LBSTRESC.LB.LBTESTCD.RBC.LB.LBCAT.2" OrderNumber="74"
                     Mandatory="No">
               <def:WhereClauseRef WhereClauseOID="WC.LB.LBTESTCD.RBC.LB.LBCAT.2"/>
            </ItemRef>
            <ItemRef ItemOID="IT.LB.LBSTRESC.LB.LBTESTCD.RBC.LB.LBCAT.URINALYSIS" OrderNumber="75"
                     Mandatory="No">
               <def:WhereClauseRef WhereClauseOID="WC.LB.LBTESTCD.RBC.LB.LBCAT.URINALYSIS"/>
            </ItemRef>
            <ItemRef ItemOID="IT.LB.LBSTRESC.LB.LBTESTCD.SODIUM.LB.LBCAT.1" OrderNumber="76"
                     Mandatory="No">
               <def:WhereClauseRef WhereClauseOID="WC.LB.LBTESTCD.SODIUM.LB.LBCAT.1"/>
            </ItemRef>
            <ItemRef ItemOID="IT.LB.LBSTRESC.LB.LBTESTCD.SPGRAV.LB.LBCAT.4" OrderNumber="77"
                     Mandatory="No">
               <def:WhereClauseRef WhereClauseOID="WC.LB.LBTESTCD.SPGRAV.LB.LBCAT.4"/>
            </ItemRef>
            <ItemRef ItemOID="IT.LB.LBSTRESC.LB.LBTESTCD.URATE.LB.LBCAT.1" OrderNumber="78"
                     Mandatory="No">
               <def:WhereClauseRef WhereClauseOID="WC.LB.LBTESTCD.URATE.LB.LBCAT.1"/>
            </ItemRef>
            <ItemRef ItemOID="IT.LB.LBSTRESC.LB.LBTESTCD.UREAN.LB.LBCAT.1" OrderNumber="79"
                     Mandatory="No">
               <def:WhereClauseRef WhereClauseOID="WC.LB.LBTESTCD.UREAN.LB.LBCAT.1"/>
            </ItemRef>
            <ItemRef ItemOID="IT.LB.LBSTRESC.LB.LBTESTCD.WBC.LB.LBCAT.2" OrderNumber="80"
                     Mandatory="No">
               <def:WhereClauseRef WhereClauseOID="WC.LB.LBTESTCD.WBC.LB.LBCAT.2"/>
            </ItemRef>
            <ItemRef ItemOID="IT.LB.LBSTRESC.LB.LBTESTCD.WBC.LB.LBCAT.URINALYSIS" OrderNumber="81"
                     Mandatory="No">
               <def:WhereClauseRef WhereClauseOID="WC.LB.LBTESTCD.WBC.LB.LBCAT.URINALYSIS"/>
            </ItemRef>
            <ItemRef ItemOID="IT.LB.LBSTRESC.LB.LBTESTCD.YEAST.LB.LBCAT.4" OrderNumber="82"
                     Mandatory="No">
               <def:WhereClauseRef WhereClauseOID="WC.LB.LBTESTCD.YEAST.LB.LBCAT.4"/>
            </ItemRef>
         </def:ValueListDef>
         <def:ValueListDef OID="VL.PE.PEORRES">
            <ItemRef ItemOID="IT.PE.PEORRES.PE.PETESTCD.CARDIO" OrderNumber="1" Mandatory="No">
               <def:WhereClauseRef WhereClauseOID="WC.PE.PETESTCD.CARDIO"/>
            </ItemRef>
            <ItemRef ItemOID="IT.PE.PEORRES.PE.PETESTCD.DERM" OrderNumber="2" Mandatory="No">
               <def:WhereClauseRef WhereClauseOID="WC.PE.PETESTCD.DERM"/>
            </ItemRef>
            <ItemRef ItemOID="IT.PE.PEORRES.PE.PETESTCD.ENT" OrderNumber="3" Mandatory="No">
               <def:WhereClauseRef WhereClauseOID="WC.PE.PETESTCD.ENT"/>
            </ItemRef>
            <ItemRef ItemOID="IT.PE.PEORRES.PE.PETESTCD.EXTREM" OrderNumber="4" Mandatory="No">
               <def:WhereClauseRef WhereClauseOID="WC.PE.PETESTCD.EXTREM"/>
            </ItemRef>
            <ItemRef ItemOID="IT.PE.PEORRES.PE.PETESTCD.EYES" OrderNumber="5" Mandatory="No">
               <def:WhereClauseRef WhereClauseOID="WC.PE.PETESTCD.EYES"/>
            </ItemRef>
            <ItemRef ItemOID="IT.PE.PEORRES.PE.PETESTCD.GASTRO" OrderNumber="6" Mandatory="No">
               <def:WhereClauseRef WhereClauseOID="WC.PE.PETESTCD.GASTRO"/>
            </ItemRef>
            <ItemRef ItemOID="IT.PE.PEORRES.PE.PETESTCD.LYMPH" OrderNumber="7" Mandatory="No">
               <def:WhereClauseRef WhereClauseOID="WC.PE.PETESTCD.LYMPH"/>
            </ItemRef>
            <ItemRef ItemOID="IT.PE.PEORRES.PE.PETESTCD.MUSC" OrderNumber="8" Mandatory="No">
               <def:WhereClauseRef WhereClauseOID="WC.PE.PETESTCD.MUSC"/>
            </ItemRef>
            <ItemRef ItemOID="IT.PE.PEORRES.PE.PETESTCD.NERV" OrderNumber="9" Mandatory="No">
               <def:WhereClauseRef WhereClauseOID="WC.PE.PETESTCD.NERV"/>
            </ItemRef>
            <ItemRef ItemOID="IT.PE.PEORRES.PE.PETESTCD.OTHER" OrderNumber="10" Mandatory="No">
               <def:WhereClauseRef WhereClauseOID="WC.PE.PETESTCD.OTHER"/>
            </ItemRef>
            <ItemRef ItemOID="IT.PE.PEORRES.PE.PETESTCD.RESP" OrderNumber="11" Mandatory="No">
               <def:WhereClauseRef WhereClauseOID="WC.PE.PETESTCD.RESP"/>
            </ItemRef>
         </def:ValueListDef>
         <def:ValueListDef OID="VL.QS.QSORRES">
            <ItemRef ItemOID="IT.QS.QSORRES.QS.QSTESTCD.IBDQ0101.QS.QSCAT.1.QS.QSSCAT.1"
                     OrderNumber="1"
                     Mandatory="No">
               <def:WhereClauseRef WhereClauseOID="WC.QS.QSTESTCD.IBDQ0101.QS.QSCAT.1.QS.QSSCAT.1"/>
            </ItemRef>
            <ItemRef ItemOID="IT.QS.QSORRES.QS.QSTESTCD.IBDQ0102.QS.QSCAT.1.QS.QSSCAT.3"
                     OrderNumber="2"
                     Mandatory="No">
               <def:WhereClauseRef WhereClauseOID="WC.QS.QSTESTCD.IBDQ0102.QS.QSCAT.1.QS.QSSCAT.3"/>
            </ItemRef>
            <ItemRef ItemOID="IT.QS.QSORRES.QS.QSTESTCD.IBDQ0103.QS.QSCAT.1.QS.QSSCAT.2"
                     OrderNumber="3"
                     Mandatory="No">
               <def:WhereClauseRef WhereClauseOID="WC.QS.QSTESTCD.IBDQ0103.QS.QSCAT.1.QS.QSSCAT.2"/>
            </ItemRef>
            <ItemRef ItemOID="IT.QS.QSORRES.QS.QSTESTCD.IBDQ0104.QS.QSCAT.1.QS.QSSCAT.4"
                     OrderNumber="4"
                     Mandatory="No">
               <def:WhereClauseRef WhereClauseOID="WC.QS.QSTESTCD.IBDQ0104.QS.QSCAT.1.QS.QSSCAT.4"/>
            </ItemRef>
            <ItemRef ItemOID="IT.QS.QSORRES.QS.QSTESTCD.IBDQ0105.QS.QSCAT.1.QS.QSSCAT.1"
                     OrderNumber="5"
                     Mandatory="No">
               <def:WhereClauseRef WhereClauseOID="WC.QS.QSTESTCD.IBDQ0105.QS.QSCAT.1.QS.QSSCAT.1"/>
            </ItemRef>
            <ItemRef ItemOID="IT.QS.QSORRES.QS.QSTESTCD.IBDQ0106.QS.QSCAT.1.QS.QSSCAT.3"
                     OrderNumber="6"
                     Mandatory="No">
               <def:WhereClauseRef WhereClauseOID="WC.QS.QSTESTCD.IBDQ0106.QS.QSCAT.1.QS.QSSCAT.3"/>
            </ItemRef>
            <ItemRef ItemOID="IT.QS.QSORRES.QS.QSTESTCD.IBDQ0107.QS.QSCAT.1.QS.QSSCAT.2"
                     OrderNumber="7"
                     Mandatory="No">
               <def:WhereClauseRef WhereClauseOID="WC.QS.QSTESTCD.IBDQ0107.QS.QSCAT.1.QS.QSSCAT.2"/>
            </ItemRef>
            <ItemRef ItemOID="IT.QS.QSORRES.QS.QSTESTCD.IBDQ0108.QS.QSCAT.1.QS.QSSCAT.4"
                     OrderNumber="8"
                     Mandatory="No">
               <def:WhereClauseRef WhereClauseOID="WC.QS.QSTESTCD.IBDQ0108.QS.QSCAT.1.QS.QSSCAT.4"/>
            </ItemRef>
            <ItemRef ItemOID="IT.QS.QSORRES.QS.QSTESTCD.IBDQ0109.QS.QSCAT.1.QS.QSSCAT.1"
                     OrderNumber="9"
                     Mandatory="No">
               <def:WhereClauseRef WhereClauseOID="WC.QS.QSTESTCD.IBDQ0109.QS.QSCAT.1.QS.QSSCAT.1"/>
            </ItemRef>
            <ItemRef ItemOID="IT.QS.QSORRES.QS.QSTESTCD.IBDQ0110.QS.QSCAT.1.QS.QSSCAT.3"
                     OrderNumber="10"
                     Mandatory="No">
               <def:WhereClauseRef WhereClauseOID="WC.QS.QSTESTCD.IBDQ0110.QS.QSCAT.1.QS.QSSCAT.3"/>
            </ItemRef>
            <ItemRef ItemOID="IT.QS.QSORRES.QS.QSTESTCD.IBDQ0111.QS.QSCAT.1.QS.QSSCAT.2"
                     OrderNumber="11"
                     Mandatory="No">
               <def:WhereClauseRef WhereClauseOID="WC.QS.QSTESTCD.IBDQ0111.QS.QSCAT.1.QS.QSSCAT.2"/>
            </ItemRef>
            <ItemRef ItemOID="IT.QS.QSORRES.QS.QSTESTCD.IBDQ0112.QS.QSCAT.1.QS.QSSCAT.4"
                     OrderNumber="12"
                     Mandatory="No">
               <def:WhereClauseRef WhereClauseOID="WC.QS.QSTESTCD.IBDQ0112.QS.QSCAT.1.QS.QSSCAT.4"/>
            </ItemRef>
            <ItemRef ItemOID="IT.QS.QSORRES.QS.QSTESTCD.IBDQ0113.QS.QSCAT.1.QS.QSSCAT.1"
                     OrderNumber="13"
                     Mandatory="No">
               <def:WhereClauseRef WhereClauseOID="WC.QS.QSTESTCD.IBDQ0113.QS.QSCAT.1.QS.QSSCAT.1"/>
            </ItemRef>
            <ItemRef ItemOID="IT.QS.QSORRES.QS.QSTESTCD.IBDQ0114.QS.QSCAT.1.QS.QSSCAT.3"
                     OrderNumber="14"
                     Mandatory="No">
               <def:WhereClauseRef WhereClauseOID="WC.QS.QSTESTCD.IBDQ0114.QS.QSCAT.1.QS.QSSCAT.3"/>
            </ItemRef>
            <ItemRef ItemOID="IT.QS.QSORRES.QS.QSTESTCD.IBDQ0115.QS.QSCAT.1.QS.QSSCAT.2"
                     OrderNumber="15"
                     Mandatory="No">
               <def:WhereClauseRef WhereClauseOID="WC.QS.QSTESTCD.IBDQ0115.QS.QSCAT.1.QS.QSSCAT.2"/>
            </ItemRef>
            <ItemRef ItemOID="IT.QS.QSORRES.QS.QSTESTCD.IBDQ0116.QS.QSCAT.1.QS.QSSCAT.4"
                     OrderNumber="16"
                     Mandatory="No">
               <def:WhereClauseRef WhereClauseOID="WC.QS.QSTESTCD.IBDQ0116.QS.QSCAT.1.QS.QSSCAT.4"/>
            </ItemRef>
            <ItemRef ItemOID="IT.QS.QSORRES.QS.QSTESTCD.IBDQ0117.QS.QSCAT.1.QS.QSSCAT.1"
                     OrderNumber="17"
                     Mandatory="No">
               <def:WhereClauseRef WhereClauseOID="WC.QS.QSTESTCD.IBDQ0117.QS.QSCAT.1.QS.QSSCAT.1"/>
            </ItemRef>
            <ItemRef ItemOID="IT.QS.QSORRES.QS.QSTESTCD.IBDQ0118.QS.QSCAT.1.QS.QSSCAT.3"
                     OrderNumber="18"
                     Mandatory="No">
               <def:WhereClauseRef WhereClauseOID="WC.QS.QSTESTCD.IBDQ0118.QS.QSCAT.1.QS.QSSCAT.3"/>
            </ItemRef>
            <ItemRef ItemOID="IT.QS.QSORRES.QS.QSTESTCD.IBDQ0119.QS.QSCAT.1.QS.QSSCAT.2"
                     OrderNumber="19"
                     Mandatory="No">
               <def:WhereClauseRef WhereClauseOID="WC.QS.QSTESTCD.IBDQ0119.QS.QSCAT.1.QS.QSSCAT.2"/>
            </ItemRef>
            <ItemRef ItemOID="IT.QS.QSORRES.QS.QSTESTCD.IBDQ0120.QS.QSCAT.1.QS.QSSCAT.1"
                     OrderNumber="20"
                     Mandatory="No">
               <def:WhereClauseRef WhereClauseOID="WC.QS.QSTESTCD.IBDQ0120.QS.QSCAT.1.QS.QSSCAT.1"/>
            </ItemRef>
            <ItemRef ItemOID="IT.QS.QSORRES.QS.QSTESTCD.IBDQ0121.QS.QSCAT.1.QS.QSSCAT.2"
                     OrderNumber="21"
                     Mandatory="No">
               <def:WhereClauseRef WhereClauseOID="WC.QS.QSTESTCD.IBDQ0121.QS.QSCAT.1.QS.QSSCAT.2"/>
            </ItemRef>
            <ItemRef ItemOID="IT.QS.QSORRES.QS.QSTESTCD.IBDQ0122.QS.QSCAT.1.QS.QSSCAT.1"
                     OrderNumber="22"
                     Mandatory="No">
               <def:WhereClauseRef WhereClauseOID="WC.QS.QSTESTCD.IBDQ0122.QS.QSCAT.1.QS.QSSCAT.1"/>
            </ItemRef>
            <ItemRef ItemOID="IT.QS.QSORRES.QS.QSTESTCD.IBDQ0123.QS.QSCAT.1.QS.QSSCAT.2"
                     OrderNumber="23"
                     Mandatory="No">
               <def:WhereClauseRef WhereClauseOID="WC.QS.QSTESTCD.IBDQ0123.QS.QSCAT.1.QS.QSSCAT.2"/>
            </ItemRef>
            <ItemRef ItemOID="IT.QS.QSORRES.QS.QSTESTCD.IBDQ0124.QS.QSCAT.1.QS.QSSCAT.1"
                     OrderNumber="24"
                     Mandatory="No">
               <def:WhereClauseRef WhereClauseOID="WC.QS.QSTESTCD.IBDQ0124.QS.QSCAT.1.QS.QSSCAT.1"/>
            </ItemRef>
            <ItemRef ItemOID="IT.QS.QSORRES.QS.QSTESTCD.IBDQ0125.QS.QSCAT.1.QS.QSSCAT.2"
                     OrderNumber="25"
                     Mandatory="No">
               <def:WhereClauseRef WhereClauseOID="WC.QS.QSTESTCD.IBDQ0125.QS.QSCAT.1.QS.QSSCAT.2"/>
            </ItemRef>
            <ItemRef ItemOID="IT.QS.QSORRES.QS.QSTESTCD.IBDQ0126.QS.QSCAT.1.QS.QSSCAT.1"
                     OrderNumber="26"
                     Mandatory="No">
               <def:WhereClauseRef WhereClauseOID="WC.QS.QSTESTCD.IBDQ0126.QS.QSCAT.1.QS.QSSCAT.1"/>
            </ItemRef>
            <ItemRef ItemOID="IT.QS.QSORRES.QS.QSTESTCD.IBDQ0127.QS.QSCAT.1.QS.QSSCAT.2"
                     OrderNumber="27"
                     Mandatory="No">
               <def:WhereClauseRef WhereClauseOID="WC.QS.QSTESTCD.IBDQ0127.QS.QSCAT.1.QS.QSSCAT.2"/>
            </ItemRef>
            <ItemRef ItemOID="IT.QS.QSORRES.QS.QSTESTCD.IBDQ0128.QS.QSCAT.1.QS.QSSCAT.4"
                     OrderNumber="28"
                     Mandatory="No">
               <def:WhereClauseRef WhereClauseOID="WC.QS.QSTESTCD.IBDQ0128.QS.QSCAT.1.QS.QSSCAT.4"/>
            </ItemRef>
            <ItemRef ItemOID="IT.QS.QSORRES.QS.QSTESTCD.IBDQ0129.QS.QSCAT.1.QS.QSSCAT.1"
                     OrderNumber="29"
                     Mandatory="No">
               <def:WhereClauseRef WhereClauseOID="WC.QS.QSTESTCD.IBDQ0129.QS.QSCAT.1.QS.QSSCAT.1"/>
            </ItemRef>
            <ItemRef ItemOID="IT.QS.QSORRES.QS.QSTESTCD.IBDQ0130.QS.QSCAT.1.QS.QSSCAT.2"
                     OrderNumber="30"
                     Mandatory="No">
               <def:WhereClauseRef WhereClauseOID="WC.QS.QSTESTCD.IBDQ0130.QS.QSCAT.1.QS.QSSCAT.2"/>
            </ItemRef>
            <ItemRef ItemOID="IT.QS.QSORRES.QS.QSTESTCD.IBDQ0131.QS.QSCAT.1.QS.QSSCAT.2"
                     OrderNumber="31"
                     Mandatory="No">
               <def:WhereClauseRef WhereClauseOID="WC.QS.QSTESTCD.IBDQ0131.QS.QSCAT.1.QS.QSSCAT.2"/>
            </ItemRef>
            <ItemRef ItemOID="IT.QS.QSORRES.QS.QSTESTCD.IBDQ0132.QS.QSCAT.1.QS.QSSCAT.2"
                     OrderNumber="32"
                     Mandatory="No">
               <def:WhereClauseRef WhereClauseOID="WC.QS.QSTESTCD.IBDQ0132.QS.QSCAT.1.QS.QSSCAT.2"/>
            </ItemRef>
         </def:ValueListDef>
         <def:ValueListDef OID="VL.RS.RSDTC">
            <ItemRef ItemOID="IT.RS.RSDTC.RS.RSDTC.DIARY" OrderNumber="1" Mandatory="No">
               <def:WhereClauseRef WhereClauseOID="WC.RS.RSDTC.DIARY"/>
            </ItemRef>
            <ItemRef ItemOID="IT.RS.RSDTC.RS.RSDTC.ENDO" OrderNumber="2" Mandatory="No">
               <def:WhereClauseRef WhereClauseOID="WC.RS.RSDTC.ENDO"/>
            </ItemRef>
            <ItemRef ItemOID="IT.RS.RSDTC.RS.RSDTC.MAYOSUB" OrderNumber="3" Mandatory="No">
               <def:WhereClauseRef WhereClauseOID="WC.RS.RSDTC.MAYOSUB"/>
            </ItemRef>
         </def:ValueListDef>
         <def:ValueListDef OID="VL.RS.RSORRES">
            <ItemRef ItemOID="IT.RS.RSORRES.RS.RSTESTCD.ENDOSC.RS.RSCAT.1.RS.RSSCAT.3"
                     OrderNumber="1"
                     Mandatory="No">
               <def:WhereClauseRef WhereClauseOID="WC.RS.RSTESTCD.ENDOSC.RS.RSCAT.1.RS.RSSCAT.3"/>
            </ItemRef>
            <ItemRef ItemOID="IT.RS.RSORRES.RS.RSTESTCD.FDENDO.RS.RSCAT.1.RS.RSSCAT.3"
                     OrderNumber="2"
                     Mandatory="No">
               <def:WhereClauseRef WhereClauseOID="WC.RS.RSTESTCD.FDENDO.RS.RSCAT.1.RS.RSSCAT.3"/>
            </ItemRef>
            <ItemRef ItemOID="IT.RS.RSORRES.RS.RSTESTCD.MAYODSCT.RS.RSCAT.1.RS.RSSCAT.1"
                     OrderNumber="3"
                     Mandatory="No">
               <def:WhereClauseRef WhereClauseOID="WC.RS.RSTESTCD.MAYODSCT.RS.RSCAT.1.RS.RSSCAT.1"/>
            </ItemRef>
            <ItemRef ItemOID="IT.RS.RSORRES.RS.RSTESTCD.OVRLSC.RS.RSCAT.1.RS.RSSCAT.2"
                     OrderNumber="4"
                     Mandatory="No">
               <def:WhereClauseRef WhereClauseOID="WC.RS.RSTESTCD.OVRLSC.RS.RSCAT.1.RS.RSSCAT.2"/>
            </ItemRef>
            <ItemRef ItemOID="IT.RS.RSORRES.RS.RSTESTCD.PHYASS.RS.RSCAT.1.RS.RSSCAT.3"
                     OrderNumber="5"
                     Mandatory="No">
               <def:WhereClauseRef WhereClauseOID="WC.RS.RSTESTCD.PHYASS.RS.RSCAT.1.RS.RSSCAT.3"/>
            </ItemRef>
            <ItemRef ItemOID="IT.RS.RSORRES.RS.RSTESTCD.RECBLEED.RS.RSCAT.1.RS.RSSCAT.1"
                     OrderNumber="6"
                     Mandatory="No">
               <def:WhereClauseRef WhereClauseOID="WC.RS.RSTESTCD.RECBLEED.RS.RSCAT.1.RS.RSSCAT.1"/>
            </ItemRef>
            <ItemRef ItemOID="IT.RS.RSORRES.RS.RSTESTCD.SSCRECT.RS.RSCAT.1.RS.RSSCAT.2"
                     OrderNumber="7"
                     Mandatory="No">
               <def:WhereClauseRef WhereClauseOID="WC.RS.RSTESTCD.SSCRECT.RS.RSCAT.1.RS.RSSCAT.2"/>
            </ItemRef>
            <ItemRef ItemOID="IT.RS.RSORRES.RS.RSTESTCD.SSCSIGCO.RS.RSCAT.1.RS.RSSCAT.2"
                     OrderNumber="8"
                     Mandatory="No">
               <def:WhereClauseRef WhereClauseOID="WC.RS.RSTESTCD.SSCSIGCO.RS.RSCAT.1.RS.RSSCAT.2"/>
            </ItemRef>
            <ItemRef ItemOID="IT.RS.RSORRES.RS.RSTESTCD.STOFREQ.RS.RSCAT.1.RS.RSSCAT.1"
                     OrderNumber="9"
                     Mandatory="No">
               <def:WhereClauseRef WhereClauseOID="WC.RS.RSTESTCD.STOFREQ.RS.RSCAT.1.RS.RSSCAT.1"/>
            </ItemRef>
         </def:ValueListDef>
         <def:ValueListDef OID="VL.SUPPAE.QVAL">
            <ItemRef ItemOID="IT.SUPPAE.QVAL.SUPPAE.QNAM.AEDISCDT" OrderNumber="1" Mandatory="Yes">
               <def:WhereClauseRef WhereClauseOID="WC.SUPPAE.QNAM.AEDISCDT"/>
            </ItemRef>
            <ItemRef ItemOID="IT.SUPPAE.QVAL.SUPPAE.QNAM.AEHOSPDT" OrderNumber="2" Mandatory="Yes">
               <def:WhereClauseRef WhereClauseOID="WC.SUPPAE.QNAM.AEHOSPDT"/>
            </ItemRef>
            <ItemRef ItemOID="IT.SUPPAE.QVAL.SUPPAE.QNAM.AERELPR" OrderNumber="3" Mandatory="Yes">
               <def:WhereClauseRef WhereClauseOID="WC.SUPPAE.QNAM.AERELPR"/>
            </ItemRef>
            <ItemRef ItemOID="IT.SUPPAE.QVAL.SUPPAE.QNAM.AESI" OrderNumber="4" Mandatory="Yes">
               <def:WhereClauseRef WhereClauseOID="WC.SUPPAE.QNAM.AESI"/>
            </ItemRef>
            <ItemRef ItemOID="IT.SUPPAE.QVAL.SUPPAE.QNAM.AEVCDVER" OrderNumber="5" Mandatory="Yes">
               <def:WhereClauseRef WhereClauseOID="WC.SUPPAE.QNAM.AEVCDVER"/>
            </ItemRef>
         </def:ValueListDef>
         <def:ValueListDef OID="VL.SUPPCE.QVAL">
            <ItemRef ItemOID="IT.SUPPCE.QVAL.SUPPCE.QNAM.SUBJID" OrderNumber="1" Mandatory="Yes"
                     MethodOID="MT.SUPPCE SUPPIE SUPPLB SUPPPR SUPPRS SUPPVS.QVAL.SUBJID">
               <def:WhereClauseRef WhereClauseOID="WC.SUPPCE.QNAM.SUBJID"/>
            </ItemRef>
         </def:ValueListDef>
         <def:ValueListDef OID="VL.SUPPCM.QVAL">
            <ItemRef ItemOID="IT.SUPPCM.QVAL.SUPPCM.QNAM.ATCCODE1" OrderNumber="1" Mandatory="Yes">
               <def:WhereClauseRef WhereClauseOID="WC.SUPPCM.QNAM.ATCCODE1"/>
            </ItemRef>
            <ItemRef ItemOID="IT.SUPPCM.QVAL.SUPPCM.QNAM.ATCCODE2" OrderNumber="2" Mandatory="Yes">
               <def:WhereClauseRef WhereClauseOID="WC.SUPPCM.QNAM.ATCCODE2"/>
            </ItemRef>
            <ItemRef ItemOID="IT.SUPPCM.QVAL.SUPPCM.QNAM.ATCCODE3" OrderNumber="3" Mandatory="Yes">
               <def:WhereClauseRef WhereClauseOID="WC.SUPPCM.QNAM.ATCCODE3"/>
            </ItemRef>
            <ItemRef ItemOID="IT.SUPPCM.QVAL.SUPPCM.QNAM.ATCCODE4" OrderNumber="4" Mandatory="Yes">
               <def:WhereClauseRef WhereClauseOID="WC.SUPPCM.QNAM.ATCCODE4"/>
            </ItemRef>
            <ItemRef ItemOID="IT.SUPPCM.QVAL.SUPPCM.QNAM.ATCTEXT1" OrderNumber="5" Mandatory="Yes">
               <def:WhereClauseRef WhereClauseOID="WC.SUPPCM.QNAM.ATCTEXT1"/>
            </ItemRef>
            <ItemRef ItemOID="IT.SUPPCM.QVAL.SUPPCM.QNAM.ATCTEXT2" OrderNumber="6" Mandatory="Yes">
               <def:WhereClauseRef WhereClauseOID="WC.SUPPCM.QNAM.ATCTEXT2"/>
            </ItemRef>
            <ItemRef ItemOID="IT.SUPPCM.QVAL.SUPPCM.QNAM.ATCTEXT3" OrderNumber="7" Mandatory="Yes">
               <def:WhereClauseRef WhereClauseOID="WC.SUPPCM.QNAM.ATCTEXT3"/>
            </ItemRef>
            <ItemRef ItemOID="IT.SUPPCM.QVAL.SUPPCM.QNAM.ATCTEXT4" OrderNumber="8" Mandatory="Yes">
               <def:WhereClauseRef WhereClauseOID="WC.SUPPCM.QNAM.ATCTEXT4"/>
            </ItemRef>
            <ItemRef ItemOID="IT.SUPPCM.QVAL.SUPPCM.QNAM.CMDECOD1" OrderNumber="9" Mandatory="Yes"
                     MethodOID="MT.SUPPCM.QVAL.CMDECOD1">
               <def:WhereClauseRef WhereClauseOID="WC.SUPPCM.QNAM.CMDECOD1"/>
            </ItemRef>
            <ItemRef ItemOID="IT.SUPPCM.QVAL.SUPPCM.QNAM.CMINDAE1" OrderNumber="10" Mandatory="Yes">
               <def:WhereClauseRef WhereClauseOID="WC.SUPPCM.QNAM.CMINDAE1"/>
            </ItemRef>
            <ItemRef ItemOID="IT.SUPPCM.QVAL.SUPPCM.QNAM.CMINDAE2" OrderNumber="11" Mandatory="Yes">
               <def:WhereClauseRef WhereClauseOID="WC.SUPPCM.QNAM.CMINDAE2"/>
            </ItemRef>
            <ItemRef ItemOID="IT.SUPPCM.QVAL.SUPPCM.QNAM.CMINDMH1" OrderNumber="12" Mandatory="Yes">
               <def:WhereClauseRef WhereClauseOID="WC.SUPPCM.QNAM.CMINDMH1"/>
            </ItemRef>
            <ItemRef ItemOID="IT.SUPPCM.QVAL.SUPPCM.QNAM.CMINDMH2" OrderNumber="13" Mandatory="Yes">
               <def:WhereClauseRef WhereClauseOID="WC.SUPPCM.QNAM.CMINDMH2"/>
            </ItemRef>
            <ItemRef ItemOID="IT.SUPPCM.QVAL.SUPPCM.QNAM.CMVCDVER" OrderNumber="14" Mandatory="Yes">
               <def:WhereClauseRef WhereClauseOID="WC.SUPPCM.QNAM.CMVCDVER"/>
            </ItemRef>
            <ItemRef ItemOID="IT.SUPPCM.QVAL.SUPPCM.QNAM.DRGRECNO" OrderNumber="15" Mandatory="Yes">
               <def:WhereClauseRef WhereClauseOID="WC.SUPPCM.QNAM.DRGRECNO"/>
            </ItemRef>
            <ItemRef ItemOID="IT.SUPPCM.QVAL.SUPPCM.QNAM.DRGSEQ1" OrderNumber="16" Mandatory="Yes">
               <def:WhereClauseRef WhereClauseOID="WC.SUPPCM.QNAM.DRGSEQ1"/>
            </ItemRef>
            <ItemRef ItemOID="IT.SUPPCM.QVAL.SUPPCM.QNAM.DRGSEQ2" OrderNumber="17" Mandatory="Yes">
               <def:WhereClauseRef WhereClauseOID="WC.SUPPCM.QNAM.DRGSEQ2"/>
            </ItemRef>
            <ItemRef ItemOID="IT.SUPPCM.QVAL.SUPPCM.QNAM.TRADE1" OrderNumber="18" Mandatory="Yes">
               <def:WhereClauseRef WhereClauseOID="WC.SUPPCM.QNAM.TRADE1"/>
            </ItemRef>
            <ItemRef ItemOID="IT.SUPPCM.QVAL.SUPPCM.QNAM.TRADE2" OrderNumber="19" Mandatory="Yes">
               <def:WhereClauseRef WhereClauseOID="WC.SUPPCM.QNAM.TRADE2"/>
            </ItemRef>
         </def:ValueListDef>
         <def:ValueListDef OID="VL.SUPPDM.QVAL">
            <ItemRef ItemOID="IT.SUPPDM.QVAL.SUPPDM.QNAM.DIAGGRP" OrderNumber="1" Mandatory="Yes">
               <def:WhereClauseRef WhereClauseOID="WC.SUPPDM.QNAM.DIAGGRP"/>
            </ItemRef>
            <ItemRef ItemOID="IT.SUPPDM.QVAL.SUPPDM.QNAM.PROTVRSN" OrderNumber="2" Mandatory="Yes">
               <def:WhereClauseRef WhereClauseOID="WC.SUPPDM.QNAM.PROTVRSN"/>
            </ItemRef>
            <ItemRef ItemOID="IT.SUPPDM.QVAL.SUPPDM.QNAM.RACESASN" OrderNumber="3" Mandatory="Yes">
               <def:WhereClauseRef WhereClauseOID="WC.SUPPDM.QNAM.RACESASN"/>
            </ItemRef>
            <ItemRef ItemOID="IT.SUPPDM.QVAL.SUPPDM.QNAM.STDYSTYN" OrderNumber="4" Mandatory="Yes">
               <def:WhereClauseRef WhereClauseOID="WC.SUPPDM.QNAM.STDYSTYN"/>
            </ItemRef>
            <ItemRef ItemOID="IT.SUPPDM.QVAL.SUPPDM.QNAM.STDYST_1" OrderNumber="5" Mandatory="Yes">
               <def:WhereClauseRef WhereClauseOID="WC.SUPPDM.QNAM.STDYST_1"/>
            </ItemRef>
         </def:ValueListDef>
         <def:ValueListDef OID="VL.SUPPDS.QVAL">
            <ItemRef ItemOID="IT.SUPPDS.QVAL.SUPPDS.QNAM.SCR1STNO" OrderNumber="1" Mandatory="Yes">
               <def:WhereClauseRef WhereClauseOID="WC.SUPPDS.QNAM.SCR1STNO"/>
            </ItemRef>
            <ItemRef ItemOID="IT.SUPPDS.QVAL.SUPPDS.QNAM.SCR1STST" OrderNumber="2" Mandatory="Yes">
               <def:WhereClauseRef WhereClauseOID="WC.SUPPDS.QNAM.SCR1STST"/>
            </ItemRef>
            <ItemRef ItemOID="IT.SUPPDS.QVAL.SUPPDS.QNAM.SCRSTD" OrderNumber="3" Mandatory="Yes">
               <def:WhereClauseRef WhereClauseOID="WC.SUPPDS.QNAM.SCRSTD"/>
            </ItemRef>
            <ItemRef ItemOID="IT.SUPPDS.QVAL.SUPPDS.QNAM.SUBJID" OrderNumber="4" Mandatory="Yes"
                     MethodOID="MT.SUPPDS SUPPFA SUPPMH SUPPPE SUPPSU.QVAL.SUBJID">
               <def:WhereClauseRef WhereClauseOID="WC.SUPPDS.QNAM.SUBJID"/>
            </ItemRef>
         </def:ValueListDef>
         <def:ValueListDef OID="VL.SUPPDV.QVAL">
            <ItemRef ItemOID="IT.SUPPDV.QVAL.SUPPDV.QNAM.ACTTYP" OrderNumber="1" Mandatory="Yes">
               <def:WhereClauseRef WhereClauseOID="WC.SUPPDV.QNAM.ACTTYP"/>
            </ItemRef>
            <ItemRef ItemOID="IT.SUPPDV.QVAL.SUPPDV.QNAM.COVIDREL" OrderNumber="2" Mandatory="Yes">
               <def:WhereClauseRef WhereClauseOID="WC.SUPPDV.QNAM.COVIDREL"/>
            </ItemRef>
            <ItemRef ItemOID="IT.SUPPDV.QVAL.SUPPDV.QNAM.CRARCDTC" OrderNumber="3" Mandatory="Yes">
               <def:WhereClauseRef WhereClauseOID="WC.SUPPDV.QNAM.CRARCDTC"/>
            </ItemRef>
            <ItemRef ItemOID="IT.SUPPDV.QVAL.SUPPDV.QNAM.DDUPDTC" OrderNumber="4" Mandatory="Yes">
               <def:WhereClauseRef WhereClauseOID="WC.SUPPDV.QNAM.DDUPDTC"/>
            </ItemRef>
            <ItemRef ItemOID="IT.SUPPDV.QVAL.SUPPDV.QNAM.DVACT1" OrderNumber="5" Mandatory="Yes">
               <def:WhereClauseRef WhereClauseOID="WC.SUPPDV.QNAM.DVACT1"/>
            </ItemRef>
            <ItemRef ItemOID="IT.SUPPDV.QVAL.SUPPDV.QNAM.DVACT2" OrderNumber="6" Mandatory="Yes">
               <def:WhereClauseRef WhereClauseOID="WC.SUPPDV.QNAM.DVACT2"/>
            </ItemRef>
            <ItemRef ItemOID="IT.SUPPDV.QVAL.SUPPDV.QNAM.DVACT3" OrderNumber="7" Mandatory="Yes">
               <def:WhereClauseRef WhereClauseOID="WC.SUPPDV.QNAM.DVACT3"/>
            </ItemRef>
            <ItemRef ItemOID="IT.SUPPDV.QVAL.SUPPDV.QNAM.DVACT4" OrderNumber="8" Mandatory="Yes">
               <def:WhereClauseRef WhereClauseOID="WC.SUPPDV.QNAM.DVACT4"/>
            </ItemRef>
            <ItemRef ItemOID="IT.SUPPDV.QVAL.SUPPDV.QNAM.DVACT5" OrderNumber="9" Mandatory="Yes">
               <def:WhereClauseRef WhereClauseOID="WC.SUPPDV.QNAM.DVACT5"/>
            </ItemRef>
            <ItemRef ItemOID="IT.SUPPDV.QVAL.SUPPDV.QNAM.DVACT6" OrderNumber="10" Mandatory="Yes">
               <def:WhereClauseRef WhereClauseOID="WC.SUPPDV.QNAM.DVACT6"/>
            </ItemRef>
            <ItemRef ItemOID="IT.SUPPDV.QVAL.SUPPDV.QNAM.DVTERM1" OrderNumber="11" Mandatory="Yes">
               <def:WhereClauseRef WhereClauseOID="WC.SUPPDV.QNAM.DVTERM1"/>
            </ItemRef>
            <ItemRef ItemOID="IT.SUPPDV.QVAL.SUPPDV.QNAM.DVTERM2" OrderNumber="12" Mandatory="Yes">
               <def:WhereClauseRef WhereClauseOID="WC.SUPPDV.QNAM.DVTERM2"/>
            </ItemRef>
            <ItemRef ItemOID="IT.SUPPDV.QVAL.SUPPDV.QNAM.DVTERM3" OrderNumber="13" Mandatory="Yes">
               <def:WhereClauseRef WhereClauseOID="WC.SUPPDV.QNAM.DVTERM3"/>
            </ItemRef>
            <ItemRef ItemOID="IT.SUPPDV.QVAL.SUPPDV.QNAM.DVTERM4" OrderNumber="14" Mandatory="Yes">
               <def:WhereClauseRef WhereClauseOID="WC.SUPPDV.QNAM.DVTERM4"/>
            </ItemRef>
            <ItemRef ItemOID="IT.SUPPDV.QVAL.SUPPDV.QNAM.DVTERM5" OrderNumber="15" Mandatory="Yes">
               <def:WhereClauseRef WhereClauseOID="WC.SUPPDV.QNAM.DVTERM5"/>
            </ItemRef>
            <ItemRef ItemOID="IT.SUPPDV.QVAL.SUPPDV.QNAM.IMPORTFL" OrderNumber="16" Mandatory="Yes">
               <def:WhereClauseRef WhereClauseOID="WC.SUPPDV.QNAM.IMPORTFL"/>
            </ItemRef>
         </def:ValueListDef>
         <def:ValueListDef OID="VL.SUPPEC.QVAL">
            <ItemRef ItemOID="IT.SUPPEC.QVAL.SUPPEC.QNAM.ECACN" OrderNumber="1" Mandatory="Yes">
               <def:WhereClauseRef WhereClauseOID="WC.SUPPEC.QNAM.ECACN"/>
            </ItemRef>
         </def:ValueListDef>
         <def:ValueListDef OID="VL.SUPPEX.QVAL">
            <ItemRef ItemOID="IT.SUPPEX.QVAL.SUPPEX.QNAM.EXACN" OrderNumber="1" Mandatory="Yes"
                     MethodOID="MT.SUPPEX.QVAL.EXACN">
               <def:WhereClauseRef WhereClauseOID="WC.SUPPEX.QNAM.EXACN"/>
            </ItemRef>
         </def:ValueListDef>
         <def:ValueListDef OID="VL.SUPPFA.QVAL">
            <ItemRef ItemOID="IT.SUPPFA.QVAL.SUPPFA.QNAM.FALOBXFL" OrderNumber="1" Mandatory="Yes"
                     MethodOID="MT.SUPPFA SUPPPE.QVAL.FALOBXFL PELOBXFL">
               <def:WhereClauseRef WhereClauseOID="WC.SUPPFA.QNAM.FALOBXFL"/>
            </ItemRef>
            <ItemRef ItemOID="IT.SUPPFA.QVAL.SUPPFA.QNAM.FAORRES1" OrderNumber="2" Mandatory="Yes"
                     MethodOID="MT.SUPPFA.QVAL.FAORRES1">
               <def:WhereClauseRef WhereClauseOID="WC.SUPPFA.QNAM.FAORRES1"/>
            </ItemRef>
            <ItemRef ItemOID="IT.SUPPFA.QVAL.SUPPFA.QNAM.FAORRES2" OrderNumber="3" Mandatory="Yes"
                     MethodOID="MT.SUPPFA.QVAL.FAORRES2">
               <def:WhereClauseRef WhereClauseOID="WC.SUPPFA.QNAM.FAORRES2"/>
            </ItemRef>
            <ItemRef ItemOID="IT.SUPPFA.QVAL.SUPPFA.QNAM.FASTRES1" OrderNumber="4" Mandatory="Yes"
                     MethodOID="MT.SUPPFA.QVAL.FASTRES1">
               <def:WhereClauseRef WhereClauseOID="WC.SUPPFA.QNAM.FASTRES1"/>
            </ItemRef>
            <ItemRef ItemOID="IT.SUPPFA.QVAL.SUPPFA.QNAM.FASTRES2" OrderNumber="5" Mandatory="Yes"
                     MethodOID="MT.SUPPFA.QVAL.FASTRES2">
               <def:WhereClauseRef WhereClauseOID="WC.SUPPFA.QNAM.FASTRES2"/>
            </ItemRef>
            <ItemRef ItemOID="IT.SUPPFA.QVAL.SUPPFA.QNAM.OTHDSLOC" OrderNumber="6" Mandatory="Yes">
               <def:WhereClauseRef WhereClauseOID="WC.SUPPFA.QNAM.OTHDSLOC"/>
            </ItemRef>
            <ItemRef ItemOID="IT.SUPPFA.QVAL.SUPPFA.QNAM.SUBJID" OrderNumber="7" Mandatory="Yes"
                     MethodOID="MT.SUPPDS SUPPFA SUPPMH SUPPPE SUPPSU.QVAL.SUBJID">
               <def:WhereClauseRef WhereClauseOID="WC.SUPPFA.QNAM.SUBJID"/>
            </ItemRef>
         </def:ValueListDef>
         <def:ValueListDef OID="VL.SUPPIE.QVAL">
            <ItemRef ItemOID="IT.SUPPIE.QVAL.SUPPIE.QNAM.SUBJID" OrderNumber="1" Mandatory="Yes"
                     MethodOID="MT.SUPPCE SUPPIE SUPPLB SUPPPR SUPPRS SUPPVS.QVAL.SUBJID">
               <def:WhereClauseRef WhereClauseOID="WC.SUPPIE.QNAM.SUBJID"/>
            </ItemRef>
         </def:ValueListDef>
         <def:ValueListDef OID="VL.SUPPIS.QVAL">
            <ItemRef ItemOID="IT.SUPPIS.QVAL.SUPPIS.QNAM.ISCOM" OrderNumber="1" Mandatory="Yes">
               <def:WhereClauseRef WhereClauseOID="WC.SUPPIS.QNAM.ISCOM"/>
            </ItemRef>
            <ItemRef ItemOID="IT.SUPPIS.QVAL.SUPPIS.QNAM.ISLOBXFL" OrderNumber="2" Mandatory="Yes"
                     MethodOID="MT.SUPPIS SUPPPC SUPPQS SUPPRS SUPPVS.QVAL.ISLOBXFL PCLOBXFL QSLOBXFL RSLOBXFL VSLOBXFL">
               <def:WhereClauseRef WhereClauseOID="WC.SUPPIS.QNAM.ISLOBXFL"/>
            </ItemRef>
            <ItemRef ItemOID="IT.SUPPIS.QVAL.SUPPIS.QNAM.ISRUNID" OrderNumber="3" Mandatory="Yes">
               <def:WhereClauseRef WhereClauseOID="WC.SUPPIS.QNAM.ISRUNID"/>
            </ItemRef>
         </def:ValueListDef>
         <def:ValueListDef OID="VL.SUPPLB.QVAL">
            <ItemRef ItemOID="IT.SUPPLB.QVAL.SUPPLB.QNAM.LBCOMM" OrderNumber="1" Mandatory="Yes">
               <def:WhereClauseRef WhereClauseOID="WC.SUPPLB.QNAM.LBCOMM"/>
            </ItemRef>
            <ItemRef ItemOID="IT.SUPPLB.QVAL.SUPPLB.QNAM.LBLOBXFL" OrderNumber="2" Mandatory="Yes"
                     MethodOID="MT.SUPPLB.QVAL.LBLOBXFL">
               <def:WhereClauseRef WhereClauseOID="WC.SUPPLB.QNAM.LBLOBXFL"/>
            </ItemRef>
            <ItemRef ItemOID="IT.SUPPLB.QVAL.SUPPLB.QNAM.LBSUCAT" OrderNumber="3" Mandatory="Yes">
               <def:WhereClauseRef WhereClauseOID="WC.SUPPLB.QNAM.LBSUCAT"/>
            </ItemRef>
            <ItemRef ItemOID="IT.SUPPLB.QVAL.SUPPLB.QNAM.SUBJID" OrderNumber="4" Mandatory="Yes"
                     MethodOID="MT.SUPPCE SUPPIE SUPPLB SUPPPR SUPPRS SUPPVS.QVAL.SUBJID">
               <def:WhereClauseRef WhereClauseOID="WC.SUPPLB.QNAM.SUBJID"/>
            </ItemRef>
            <ItemRef ItemOID="IT.SUPPLB.QVAL.SUPPLB.QNAM.TYPE" OrderNumber="5" Mandatory="Yes">
               <def:WhereClauseRef WhereClauseOID="WC.SUPPLB.QNAM.TYPE"/>
            </ItemRef>
         </def:ValueListDef>
         <def:ValueListDef OID="VL.SUPPMH.QVAL">
            <ItemRef ItemOID="IT.SUPPMH.QVAL.SUPPMH.QNAM.MHEVDTYP" OrderNumber="1" Mandatory="Yes">
               <def:WhereClauseRef WhereClauseOID="WC.SUPPMH.QNAM.MHEVDTYP"/>
            </ItemRef>
            <ItemRef ItemOID="IT.SUPPMH.QVAL.SUPPMH.QNAM.MHVCDVER" OrderNumber="2" Mandatory="Yes">
               <def:WhereClauseRef WhereClauseOID="WC.SUPPMH.QNAM.MHVCDVER"/>
            </ItemRef>
            <ItemRef ItemOID="IT.SUPPMH.QVAL.SUPPMH.QNAM.SUBJID" OrderNumber="3" Mandatory="Yes"
                     MethodOID="MT.SUPPDS SUPPFA SUPPMH SUPPPE SUPPSU.QVAL.SUBJID">
               <def:WhereClauseRef WhereClauseOID="WC.SUPPMH.QNAM.SUBJID"/>
            </ItemRef>
         </def:ValueListDef>
         <def:ValueListDef OID="VL.SUPPPC.QVAL">
            <ItemRef ItemOID="IT.SUPPPC.QVAL.SUPPPC.QNAM.PCLOBXFL" OrderNumber="1" Mandatory="Yes"
                     MethodOID="MT.SUPPIS SUPPPC SUPPQS SUPPRS SUPPVS.QVAL.ISLOBXFL PCLOBXFL QSLOBXFL RSLOBXFL VSLOBXFL">
               <def:WhereClauseRef WhereClauseOID="WC.SUPPPC.QNAM.PCLOBXFL"/>
            </ItemRef>
         </def:ValueListDef>
         <def:ValueListDef OID="VL.SUPPPE.QVAL">
            <ItemRef ItemOID="IT.SUPPPE.QVAL.SUPPPE.QNAM.PELOBXFL" OrderNumber="1" Mandatory="Yes"
                     MethodOID="MT.SUPPFA SUPPPE.QVAL.FALOBXFL PELOBXFL">
               <def:WhereClauseRef WhereClauseOID="WC.SUPPPE.QNAM.PELOBXFL"/>
            </ItemRef>
            <ItemRef ItemOID="IT.SUPPPE.QVAL.SUPPPE.QNAM.SUBJID" OrderNumber="2" Mandatory="Yes"
                     MethodOID="MT.SUPPDS SUPPFA SUPPMH SUPPPE SUPPSU.QVAL.SUBJID">
               <def:WhereClauseRef WhereClauseOID="WC.SUPPPE.QNAM.SUBJID"/>
            </ItemRef>
         </def:ValueListDef>
         <def:ValueListDef OID="VL.SUPPPR.QVAL">
            <ItemRef ItemOID="IT.SUPPPR.QVAL.SUPPPR.QNAM.SUBJID" OrderNumber="1" Mandatory="Yes"
                     MethodOID="MT.SUPPCE SUPPIE SUPPLB SUPPPR SUPPRS SUPPVS.QVAL.SUBJID">
               <def:WhereClauseRef WhereClauseOID="WC.SUPPPR.QNAM.SUBJID"/>
            </ItemRef>
         </def:ValueListDef>
         <def:ValueListDef OID="VL.SUPPQS.QVAL">
            <ItemRef ItemOID="IT.SUPPQS.QVAL.SUPPQS.QNAM.QSLOBXFL" OrderNumber="1" Mandatory="Yes"
                     MethodOID="MT.SUPPIS SUPPPC SUPPQS SUPPRS SUPPVS.QVAL.ISLOBXFL PCLOBXFL QSLOBXFL RSLOBXFL VSLOBXFL">
               <def:WhereClauseRef WhereClauseOID="WC.SUPPQS.QNAM.QSLOBXFL"/>
            </ItemRef>
         </def:ValueListDef>
         <def:ValueListDef OID="VL.SUPPRS.QVAL">
            <ItemRef ItemOID="IT.SUPPRS.QVAL.SUPPRS.QNAM.DUPDARFL" OrderNumber="1" Mandatory="Yes"
                     MethodOID="MT.SUPPRS.QVAL.DUPDARFL">
               <def:WhereClauseRef WhereClauseOID="WC.SUPPRS.QNAM.DUPDARFL"/>
            </ItemRef>
            <ItemRef ItemOID="IT.SUPPRS.QVAL.SUPPRS.QNAM.RSCMPDTC" OrderNumber="2" Mandatory="Yes">
               <def:WhereClauseRef WhereClauseOID="WC.SUPPRS.QNAM.RSCMPDTC"/>
            </ItemRef>
            <ItemRef ItemOID="IT.SUPPRS.QVAL.SUPPRS.QNAM.RSLOBXFL" OrderNumber="3" Mandatory="Yes"
                     MethodOID="MT.SUPPIS SUPPPC SUPPQS SUPPRS SUPPVS.QVAL.ISLOBXFL PCLOBXFL QSLOBXFL RSLOBXFL VSLOBXFL">
               <def:WhereClauseRef WhereClauseOID="WC.SUPPRS.QNAM.RSLOBXFL"/>
            </ItemRef>
            <ItemRef ItemOID="IT.SUPPRS.QVAL.SUPPRS.QNAM.SUBJID" OrderNumber="4" Mandatory="Yes"
                     MethodOID="MT.SUPPCE SUPPIE SUPPLB SUPPPR SUPPRS SUPPVS.QVAL.SUBJID">
               <def:WhereClauseRef WhereClauseOID="WC.SUPPRS.QNAM.SUBJID"/>
            </ItemRef>
            <ItemRef ItemOID="IT.SUPPRS.QVAL.SUPPRS.QNAM.VIDADQSN" OrderNumber="5" Mandatory="Yes">
               <def:WhereClauseRef WhereClauseOID="WC.SUPPRS.QNAM.VIDADQSN"/>
            </ItemRef>
            <ItemRef ItemOID="IT.SUPPRS.QVAL.SUPPRS.QNAM.VIDADSN1" OrderNumber="6" Mandatory="Yes">
               <def:WhereClauseRef WhereClauseOID="WC.SUPPRS.QNAM.VIDADSN1"/>
            </ItemRef>
            <ItemRef ItemOID="IT.SUPPRS.QVAL.SUPPRS.QNAM.VIDADSN2" OrderNumber="7" Mandatory="Yes">
               <def:WhereClauseRef WhereClauseOID="WC.SUPPRS.QNAM.VIDADSN2"/>
            </ItemRef>
            <ItemRef ItemOID="IT.SUPPRS.QVAL.SUPPRS.QNAM.VIDADSN3" OrderNumber="8" Mandatory="Yes">
               <def:WhereClauseRef WhereClauseOID="WC.SUPPRS.QNAM.VIDADSN3"/>
            </ItemRef>
            <ItemRef ItemOID="IT.SUPPRS.QVAL.SUPPRS.QNAM.VIDEADQ" OrderNumber="9" Mandatory="Yes">
               <def:WhereClauseRef WhereClauseOID="WC.SUPPRS.QNAM.VIDEADQ"/>
            </ItemRef>
         </def:ValueListDef>
         <def:ValueListDef OID="VL.SUPPSU.QVAL">
            <ItemRef ItemOID="IT.SUPPSU.QVAL.SUPPSU.QNAM.SUBJID" OrderNumber="1" Mandatory="Yes"
                     MethodOID="MT.SUPPDS SUPPFA SUPPMH SUPPPE SUPPSU.QVAL.SUBJID">
               <def:WhereClauseRef WhereClauseOID="WC.SUPPSU.QNAM.SUBJID"/>
            </ItemRef>
            <ItemRef ItemOID="IT.SUPPSU.QVAL.SUPPSU.QNAM.SUNCF" OrderNumber="2" Mandatory="Yes">
               <def:WhereClauseRef WhereClauseOID="WC.SUPPSU.QNAM.SUNCF"/>
            </ItemRef>
         </def:ValueListDef>
         <def:ValueListDef OID="VL.SUPPVS.QVAL">
            <ItemRef ItemOID="IT.SUPPVS.QVAL.SUPPVS.QNAM.SUBJID" OrderNumber="1" Mandatory="Yes"
                     MethodOID="MT.SUPPCE SUPPIE SUPPLB SUPPPR SUPPRS SUPPVS.QVAL.SUBJID">
               <def:WhereClauseRef WhereClauseOID="WC.SUPPVS.QNAM.SUBJID"/>
            </ItemRef>
            <ItemRef ItemOID="IT.SUPPVS.QVAL.SUPPVS.QNAM.VSLOBXFL" OrderNumber="2" Mandatory="Yes"
                     MethodOID="MT.SUPPIS SUPPPC SUPPQS SUPPRS SUPPVS.QVAL.ISLOBXFL PCLOBXFL QSLOBXFL RSLOBXFL VSLOBXFL">
               <def:WhereClauseRef WhereClauseOID="WC.SUPPVS.QNAM.VSLOBXFL"/>
            </ItemRef>
         </def:ValueListDef>
         <def:ValueListDef OID="VL.SUPPXM.QVAL">
            <ItemRef ItemOID="IT.SUPPXM.QVAL.SUPPXM.QNAM.DIAGGRP" OrderNumber="1" Mandatory="Yes">
               <def:WhereClauseRef WhereClauseOID="WC.SUPPXM.QNAM.DIAGGRP"/>
            </ItemRef>
            <ItemRef ItemOID="IT.SUPPXM.QVAL.SUPPXM.QNAM.PROTVRSN" OrderNumber="2" Mandatory="Yes">
               <def:WhereClauseRef WhereClauseOID="WC.SUPPXM.QNAM.PROTVRSN"/>
            </ItemRef>
            <ItemRef ItemOID="IT.SUPPXM.QVAL.SUPPXM.QNAM.RACESASN" OrderNumber="3" Mandatory="Yes">
               <def:WhereClauseRef WhereClauseOID="WC.SUPPXM.QNAM.RACESASN"/>
            </ItemRef>
         </def:ValueListDef>
         <def:ValueListDef OID="VL.TS.TSVAL">
            <ItemRef ItemOID="IT.TS.TSVAL.TS.TSPARMCD.ACTSUB" OrderNumber="1" Mandatory="No"
                     MethodOID="MT.TS.TSVAL.ACTSUB">
               <def:WhereClauseRef WhereClauseOID="WC.TS.TSPARMCD.ACTSUB"/>
            </ItemRef>
            <ItemRef ItemOID="IT.TS.TSVAL.TS.TSPARMCD.ADAPT" OrderNumber="2" Mandatory="No">
               <def:WhereClauseRef WhereClauseOID="WC.TS.TSPARMCD.ADAPT"/>
            </ItemRef>
            <ItemRef ItemOID="IT.TS.TSVAL.TS.TSPARMCD.ADDON" OrderNumber="3" Mandatory="No">
               <def:WhereClauseRef WhereClauseOID="WC.TS.TSPARMCD.ADDON"/>
            </ItemRef>
            <ItemRef ItemOID="IT.TS.TSVAL.TS.TSPARMCD.AGEMAX" OrderNumber="4" Mandatory="No">
               <def:WhereClauseRef WhereClauseOID="WC.TS.TSPARMCD.AGEMAX"/>
            </ItemRef>
            <ItemRef ItemOID="IT.TS.TSVAL.TS.TSPARMCD.AGEMIN" OrderNumber="5" Mandatory="No">
               <def:WhereClauseRef WhereClauseOID="WC.TS.TSPARMCD.AGEMIN"/>
            </ItemRef>
            <ItemRef ItemOID="IT.TS.TSVAL.TS.TSPARMCD.DCUTDESC" OrderNumber="6" Mandatory="No">
               <def:WhereClauseRef WhereClauseOID="WC.TS.TSPARMCD.DCUTDESC"/>
            </ItemRef>
            <ItemRef ItemOID="IT.TS.TSVAL.TS.TSPARMCD.DCUTDTC" OrderNumber="7" Mandatory="No">
               <def:WhereClauseRef WhereClauseOID="WC.TS.TSPARMCD.DCUTDTC"/>
            </ItemRef>
            <ItemRef ItemOID="IT.TS.TSVAL.TS.TSPARMCD.DOSE" OrderNumber="8" Mandatory="No">
               <def:WhereClauseRef WhereClauseOID="WC.TS.TSPARMCD.DOSE"/>
            </ItemRef>
            <ItemRef ItemOID="IT.TS.TSVAL.TS.TSPARMCD.DOSU" OrderNumber="9" Mandatory="No">
               <def:WhereClauseRef WhereClauseOID="WC.TS.TSPARMCD.DOSU"/>
            </ItemRef>
            <ItemRef ItemOID="IT.TS.TSVAL.TS.TSPARMCD.FCNTRY" OrderNumber="10" Mandatory="No">
               <def:WhereClauseRef WhereClauseOID="WC.TS.TSPARMCD.FCNTRY"/>
            </ItemRef>
            <ItemRef ItemOID="IT.TS.TSVAL.TS.TSPARMCD.HLTSUBJI" OrderNumber="11" Mandatory="No">
               <def:WhereClauseRef WhereClauseOID="WC.TS.TSPARMCD.HLTSUBJI"/>
            </ItemRef>
            <ItemRef ItemOID="IT.TS.TSVAL.TS.TSPARMCD.INDIC" OrderNumber="12" Mandatory="No">
               <def:WhereClauseRef WhereClauseOID="WC.TS.TSPARMCD.INDIC"/>
            </ItemRef>
            <ItemRef ItemOID="IT.TS.TSVAL.TS.TSPARMCD.INTMODEL" OrderNumber="13" Mandatory="No">
               <def:WhereClauseRef WhereClauseOID="WC.TS.TSPARMCD.INTMODEL"/>
            </ItemRef>
            <ItemRef ItemOID="IT.TS.TSVAL.TS.TSPARMCD.INTTYPE" OrderNumber="14" Mandatory="No">
               <def:WhereClauseRef WhereClauseOID="WC.TS.TSPARMCD.INTTYPE"/>
            </ItemRef>
            <ItemRef ItemOID="IT.TS.TSVAL.TS.TSPARMCD.LENGTH" OrderNumber="15" Mandatory="No">
               <def:WhereClauseRef WhereClauseOID="WC.TS.TSPARMCD.LENGTH"/>
            </ItemRef>
            <ItemRef ItemOID="IT.TS.TSVAL.TS.TSPARMCD.NARMS" OrderNumber="16" Mandatory="No">
               <def:WhereClauseRef WhereClauseOID="WC.TS.TSPARMCD.NARMS"/>
            </ItemRef>
            <ItemRef ItemOID="IT.TS.TSVAL.TS.TSPARMCD.OBJPRIM" OrderNumber="17" Mandatory="No">
               <def:WhereClauseRef WhereClauseOID="WC.TS.TSPARMCD.OBJPRIM"/>
            </ItemRef>
            <ItemRef ItemOID="IT.TS.TSVAL.TS.TSPARMCD.OBJSEC" OrderNumber="18" Mandatory="No">
               <def:WhereClauseRef WhereClauseOID="WC.TS.TSPARMCD.OBJSEC"/>
            </ItemRef>
            <ItemRef ItemOID="IT.TS.TSVAL.TS.TSPARMCD.OUTMSPRI" OrderNumber="19" Mandatory="No">
               <def:WhereClauseRef WhereClauseOID="WC.TS.TSPARMCD.OUTMSPRI"/>
            </ItemRef>
            <ItemRef ItemOID="IT.TS.TSVAL.TS.TSPARMCD.OUTMSSEC" OrderNumber="20" Mandatory="No">
               <def:WhereClauseRef WhereClauseOID="WC.TS.TSPARMCD.OUTMSSEC"/>
            </ItemRef>
            <ItemRef ItemOID="IT.TS.TSVAL.TS.TSPARMCD.PCLAS" OrderNumber="21" Mandatory="No">
               <def:WhereClauseRef WhereClauseOID="WC.TS.TSPARMCD.PCLAS"/>
            </ItemRef>
            <ItemRef ItemOID="IT.TS.TSVAL.TS.TSPARMCD.PLANSUB" OrderNumber="22" Mandatory="No">
               <def:WhereClauseRef WhereClauseOID="WC.TS.TSPARMCD.PLANSUB"/>
            </ItemRef>
            <ItemRef ItemOID="IT.TS.TSVAL.TS.TSPARMCD.RANDOM" OrderNumber="23" Mandatory="No">
               <def:WhereClauseRef WhereClauseOID="WC.TS.TSPARMCD.RANDOM"/>
            </ItemRef>
            <ItemRef ItemOID="IT.TS.TSVAL.TS.TSPARMCD.REGID" OrderNumber="24" Mandatory="No">
               <def:WhereClauseRef WhereClauseOID="WC.TS.TSPARMCD.REGID"/>
            </ItemRef>
            <ItemRef ItemOID="IT.TS.TSVAL.TS.TSPARMCD.ROUTE" OrderNumber="25" Mandatory="No">
               <def:WhereClauseRef WhereClauseOID="WC.TS.TSPARMCD.ROUTE"/>
            </ItemRef>
            <ItemRef ItemOID="IT.TS.TSVAL.TS.TSPARMCD.SENDTC" OrderNumber="26" Mandatory="No">
               <def:WhereClauseRef WhereClauseOID="WC.TS.TSPARMCD.SENDTC"/>
            </ItemRef>
            <ItemRef ItemOID="IT.TS.TSVAL.TS.TSPARMCD.SEXPOP" OrderNumber="27" Mandatory="No">
               <def:WhereClauseRef WhereClauseOID="WC.TS.TSPARMCD.SEXPOP"/>
            </ItemRef>
            <ItemRef ItemOID="IT.TS.TSVAL.TS.TSPARMCD.SPONSOR" OrderNumber="28" Mandatory="No">
               <def:WhereClauseRef WhereClauseOID="WC.TS.TSPARMCD.SPONSOR"/>
            </ItemRef>
            <ItemRef ItemOID="IT.TS.TSVAL.TS.TSPARMCD.SSTDTC" OrderNumber="29" Mandatory="No"
                     MethodOID="MT.TS.TSVAL.SSTDTC">
               <def:WhereClauseRef WhereClauseOID="WC.TS.TSPARMCD.SSTDTC"/>
            </ItemRef>
            <ItemRef ItemOID="IT.TS.TSVAL.TS.TSPARMCD.STOPRULE" OrderNumber="30" Mandatory="No">
               <def:WhereClauseRef WhereClauseOID="WC.TS.TSPARMCD.STOPRULE"/>
            </ItemRef>
            <ItemRef ItemOID="IT.TS.TSVAL.TS.TSPARMCD.STYPE" OrderNumber="31" Mandatory="No">
               <def:WhereClauseRef WhereClauseOID="WC.TS.TSPARMCD.STYPE"/>
            </ItemRef>
            <ItemRef ItemOID="IT.TS.TSVAL.TS.TSPARMCD.TBLIND" OrderNumber="32" Mandatory="No">
               <def:WhereClauseRef WhereClauseOID="WC.TS.TSPARMCD.TBLIND"/>
            </ItemRef>
            <ItemRef ItemOID="IT.TS.TSVAL.TS.TSPARMCD.TCNTRL" OrderNumber="33" Mandatory="No">
               <def:WhereClauseRef WhereClauseOID="WC.TS.TSPARMCD.TCNTRL"/>
            </ItemRef>
            <ItemRef ItemOID="IT.TS.TSVAL.TS.TSPARMCD.TDIGRP" OrderNumber="34" Mandatory="No">
               <def:WhereClauseRef WhereClauseOID="WC.TS.TSPARMCD.TDIGRP"/>
            </ItemRef>
            <ItemRef ItemOID="IT.TS.TSVAL.TS.TSPARMCD.TINDTP" OrderNumber="35" Mandatory="No">
               <def:WhereClauseRef WhereClauseOID="WC.TS.TSPARMCD.TINDTP"/>
            </ItemRef>
            <ItemRef ItemOID="IT.TS.TSVAL.TS.TSPARMCD.TITLE" OrderNumber="36" Mandatory="No">
               <def:WhereClauseRef WhereClauseOID="WC.TS.TSPARMCD.TITLE"/>
            </ItemRef>
            <ItemRef ItemOID="IT.TS.TSVAL.TS.TSPARMCD.TPHASE" OrderNumber="37" Mandatory="No">
               <def:WhereClauseRef WhereClauseOID="WC.TS.TSPARMCD.TPHASE"/>
            </ItemRef>
            <ItemRef ItemOID="IT.TS.TSVAL.TS.TSPARMCD.TRT" OrderNumber="38" Mandatory="No">
               <def:WhereClauseRef WhereClauseOID="WC.TS.TSPARMCD.TRT"/>
            </ItemRef>
            <ItemRef ItemOID="IT.TS.TSVAL.TS.TSPARMCD.TTYPE" OrderNumber="39" Mandatory="No">
               <def:WhereClauseRef WhereClauseOID="WC.TS.TSPARMCD.TTYPE"/>
            </ItemRef>
         </def:ValueListDef>
         <def:ValueListDef OID="VL.TS.TSVAL1">
            <ItemRef ItemOID="IT.TS.TSVAL1.TS.TSPARMCD.OBJPRIM" OrderNumber="1" Mandatory="No">
               <def:WhereClauseRef WhereClauseOID="WC.TS.TSPARMCD.OBJPRIM"/>
            </ItemRef>
            <ItemRef ItemOID="IT.TS.TSVAL1.TS.TSPARMCD.OBJSEC" OrderNumber="2" Mandatory="No">
               <def:WhereClauseRef WhereClauseOID="WC.TS.TSPARMCD.OBJSEC"/>
            </ItemRef>
            <ItemRef ItemOID="IT.TS.TSVAL1.TS.TSPARMCD.OUTMSPRI" OrderNumber="3" Mandatory="No">
               <def:WhereClauseRef WhereClauseOID="WC.TS.TSPARMCD.OUTMSPRI"/>
            </ItemRef>
            <ItemRef ItemOID="IT.TS.TSVAL1.TS.TSPARMCD.OUTMSSEC" OrderNumber="4" Mandatory="No">
               <def:WhereClauseRef WhereClauseOID="WC.TS.TSPARMCD.OUTMSSEC"/>
            </ItemRef>
            <ItemRef ItemOID="IT.TS.TSVAL1.TS.TSPARMCD.TITLE" OrderNumber="5" Mandatory="No">
               <def:WhereClauseRef WhereClauseOID="WC.TS.TSPARMCD.TITLE"/>
            </ItemRef>
         </def:ValueListDef>
         <def:ValueListDef OID="VL.VS.VSORRES">
            <ItemRef ItemOID="IT.VS.VSORRES.VS.VSTESTCD.DIABP" OrderNumber="1" Mandatory="No">
               <def:WhereClauseRef WhereClauseOID="WC.VS.VSTESTCD.DIABP"/>
            </ItemRef>
            <ItemRef ItemOID="IT.VS.VSORRES.VS.VSTESTCD.HEIGHT" OrderNumber="2" Mandatory="No">
               <def:WhereClauseRef WhereClauseOID="WC.VS.VSTESTCD.HEIGHT"/>
            </ItemRef>
            <ItemRef ItemOID="IT.VS.VSORRES.VS.VSTESTCD.PULSE" OrderNumber="3" Mandatory="No">
               <def:WhereClauseRef WhereClauseOID="WC.VS.VSTESTCD.PULSE"/>
            </ItemRef>
            <ItemRef ItemOID="IT.VS.VSORRES.VS.VSTESTCD.RESP" OrderNumber="4" Mandatory="No">
               <def:WhereClauseRef WhereClauseOID="WC.VS.VSTESTCD.RESP"/>
            </ItemRef>
            <ItemRef ItemOID="IT.VS.VSORRES.VS.VSTESTCD.SYSBP" OrderNumber="5" Mandatory="No">
               <def:WhereClauseRef WhereClauseOID="WC.VS.VSTESTCD.SYSBP"/>
            </ItemRef>
            <ItemRef ItemOID="IT.VS.VSORRES.VS.VSTESTCD.TEMP" OrderNumber="6" Mandatory="No">
               <def:WhereClauseRef WhereClauseOID="WC.VS.VSTESTCD.TEMP"/>
            </ItemRef>
            <ItemRef ItemOID="IT.VS.VSORRES.VS.VSTESTCD.WEIGHT" OrderNumber="7" Mandatory="No">
               <def:WhereClauseRef WhereClauseOID="WC.VS.VSTESTCD.WEIGHT"/>
            </ItemRef>
         </def:ValueListDef>
         <def:WhereClauseDef OID="WC.FA.FATESTCD.CLNRSPC.FA.FACAT.1.FA.FASCAT.2">
            <RangeCheck SoftHard="Soft" def:ItemOID="IT.FA.FACAT" Comparator="EQ">
               <CheckValue>DISEASE CHARACTERISTICS ULCERATIVE COLITIS</CheckValue>
            </RangeCheck>
            <RangeCheck SoftHard="Soft" def:ItemOID="IT.FA.FASCAT" Comparator="EQ">
               <CheckValue>INCLUSION CRITERIA</CheckValue>
            </RangeCheck>
            <RangeCheck SoftHard="Soft" def:ItemOID="IT.FA.FATESTCD" Comparator="EQ">
               <CheckValue>CLNRSPC</CheckValue>
            </RangeCheck>
         </def:WhereClauseDef>
         <def:WhereClauseDef OID="WC.FA.FATESTCD.DESCRIB.FA.FACAT.1">
            <RangeCheck SoftHard="Soft" def:ItemOID="IT.FA.FACAT" Comparator="EQ">
               <CheckValue>DISEASE CHARACTERISTICS ULCERATIVE COLITIS</CheckValue>
            </RangeCheck>
            <RangeCheck SoftHard="Soft" def:ItemOID="IT.FA.FATESTCD" Comparator="EQ">
               <CheckValue>DESCRIB</CheckValue>
            </RangeCheck>
         </def:WhereClauseDef>
         <def:WhereClauseDef OID="WC.FA.FATESTCD.ELGEXPL.FA.FACAT.1.FA.FASCAT.2">
            <RangeCheck SoftHard="Soft" def:ItemOID="IT.FA.FACAT" Comparator="EQ">
               <CheckValue>DISEASE CHARACTERISTICS ULCERATIVE COLITIS</CheckValue>
            </RangeCheck>
            <RangeCheck SoftHard="Soft" def:ItemOID="IT.FA.FASCAT" Comparator="EQ">
               <CheckValue>INCLUSION CRITERIA</CheckValue>
            </RangeCheck>
            <RangeCheck SoftHard="Soft" def:ItemOID="IT.FA.FATESTCD" Comparator="EQ">
               <CheckValue>ELGEXPL</CheckValue>
            </RangeCheck>
         </def:WhereClauseDef>
         <def:WhereClauseDef OID="WC.FA.FATESTCD.HOSPREAS.FA.FACAT.1">
            <RangeCheck SoftHard="Soft" def:ItemOID="IT.FA.FACAT" Comparator="EQ">
               <CheckValue>DISEASE CHARACTERISTICS ULCERATIVE COLITIS</CheckValue>
            </RangeCheck>
            <RangeCheck SoftHard="Soft" def:ItemOID="IT.FA.FATESTCD" Comparator="EQ">
               <CheckValue>HOSPREAS</CheckValue>
            </RangeCheck>
         </def:WhereClauseDef>
         <def:WhereClauseDef OID="WC.FA.FATESTCD.NUMOCCUR.FA.FACAT.1">
            <RangeCheck SoftHard="Soft" def:ItemOID="IT.FA.FACAT" Comparator="EQ">
               <CheckValue>DISEASE CHARACTERISTICS ULCERATIVE COLITIS</CheckValue>
            </RangeCheck>
            <RangeCheck SoftHard="Soft" def:ItemOID="IT.FA.FATESTCD" Comparator="EQ">
               <CheckValue>NUMOCCUR</CheckValue>
            </RangeCheck>
         </def:WhereClauseDef>
         <def:WhereClauseDef OID="WC.FA.FATESTCD.OCCENDTC.FA.FACAT.1">
            <RangeCheck SoftHard="Soft" def:ItemOID="IT.FA.FACAT" Comparator="EQ">
               <CheckValue>DISEASE CHARACTERISTICS ULCERATIVE COLITIS</CheckValue>
            </RangeCheck>
            <RangeCheck SoftHard="Soft" def:ItemOID="IT.FA.FATESTCD" Comparator="EQ">
               <CheckValue>OCCENDTC</CheckValue>
            </RangeCheck>
         </def:WhereClauseDef>
         <def:WhereClauseDef OID="WC.FA.FATESTCD.OCCUR.FA.FACAT.1.FA.FASCAT.1">
            <RangeCheck SoftHard="Soft" def:ItemOID="IT.FA.FACAT" Comparator="EQ">
               <CheckValue>DISEASE CHARACTERISTICS ULCERATIVE COLITIS</CheckValue>
            </RangeCheck>
            <RangeCheck SoftHard="Soft" def:ItemOID="IT.FA.FASCAT" Comparator="EQ">
               <CheckValue>EXTRAINTESTINAL MANIFESTATIONS</CheckValue>
            </RangeCheck>
            <RangeCheck SoftHard="Soft" def:ItemOID="IT.FA.FATESTCD" Comparator="EQ">
               <CheckValue>OCCUR</CheckValue>
            </RangeCheck>
         </def:WhereClauseDef>
         <def:WhereClauseDef OID="WC.FA.FATESTCD.OCENRTPT.FA.FACAT.1">
            <RangeCheck SoftHard="Soft" def:ItemOID="IT.FA.FACAT" Comparator="EQ">
               <CheckValue>DISEASE CHARACTERISTICS ULCERATIVE COLITIS</CheckValue>
            </RangeCheck>
            <RangeCheck SoftHard="Soft" def:ItemOID="IT.FA.FATESTCD" Comparator="EQ">
               <CheckValue>OCENRTPT</CheckValue>
            </RangeCheck>
         </def:WhereClauseDef>
         <def:WhereClauseDef OID="WC.FA.FATESTCD.SLRSPC.FA.FACAT.1.FA.FASCAT.2">
            <RangeCheck SoftHard="Soft" def:ItemOID="IT.FA.FACAT" Comparator="EQ">
               <CheckValue>DISEASE CHARACTERISTICS ULCERATIVE COLITIS</CheckValue>
            </RangeCheck>
            <RangeCheck SoftHard="Soft" def:ItemOID="IT.FA.FASCAT" Comparator="EQ">
               <CheckValue>INCLUSION CRITERIA</CheckValue>
            </RangeCheck>
            <RangeCheck SoftHard="Soft" def:ItemOID="IT.FA.FATESTCD" Comparator="EQ">
               <CheckValue>SLRSPC</CheckValue>
            </RangeCheck>
         </def:WhereClauseDef>
         <def:WhereClauseDef OID="WC.IS.ISTESTCD.ADA_BAB.IS.ISCAT.1">
            <RangeCheck SoftHard="Soft" def:ItemOID="IT.IS.ISCAT" Comparator="EQ">
               <CheckValue>AVA BLOOD COLLECTION</CheckValue>
            </RangeCheck>
            <RangeCheck SoftHard="Soft" def:ItemOID="IT.IS.ISTESTCD" Comparator="EQ">
               <CheckValue>ADA_BAB</CheckValue>
            </RangeCheck>
         </def:WhereClauseDef>
         <def:WhereClauseDef OID="WC.IS.ISTESTCD.ADA_NAB.IS.ISCAT.1">
            <RangeCheck SoftHard="Soft" def:ItemOID="IT.IS.ISCAT" Comparator="EQ">
               <CheckValue>AVA BLOOD COLLECTION</CheckValue>
            </RangeCheck>
            <RangeCheck SoftHard="Soft" def:ItemOID="IT.IS.ISTESTCD" Comparator="EQ">
               <CheckValue>ADA_NAB</CheckValue>
            </RangeCheck>
         </def:WhereClauseDef>
         <def:WhereClauseDef OID="WC.IS.ISTESTCD.ISALL.IS.ISCAT.1">
            <RangeCheck SoftHard="Soft" def:ItemOID="IT.IS.ISCAT" Comparator="EQ">
               <CheckValue>AVA BLOOD COLLECTION</CheckValue>
            </RangeCheck>
            <RangeCheck SoftHard="Soft" def:ItemOID="IT.IS.ISTESTCD" Comparator="EQ">
               <CheckValue>ISALL</CheckValue>
            </RangeCheck>
         </def:WhereClauseDef>
         <def:WhereClauseDef OID="WC.LB.LBTESTCD.ALB.LB.LBCAT.1">
            <RangeCheck SoftHard="Soft" def:ItemOID="IT.LB.LBCAT" Comparator="EQ">
               <CheckValue>CHEMISTRY</CheckValue>
            </RangeCheck>
            <RangeCheck SoftHard="Soft" def:ItemOID="IT.LB.LBTESTCD" Comparator="EQ">
               <CheckValue>ALB</CheckValue>
            </RangeCheck>
         </def:WhereClauseDef>
         <def:WhereClauseDef OID="WC.LB.LBTESTCD.ALP.LB.LBCAT.1">
            <RangeCheck SoftHard="Soft" def:ItemOID="IT.LB.LBCAT" Comparator="EQ">
               <CheckValue>CHEMISTRY</CheckValue>
            </RangeCheck>
            <RangeCheck SoftHard="Soft" def:ItemOID="IT.LB.LBTESTCD" Comparator="EQ">
               <CheckValue>ALP</CheckValue>
            </RangeCheck>
         </def:WhereClauseDef>
         <def:WhereClauseDef OID="WC.LB.LBTESTCD.ALT.LB.LBCAT.1">
            <RangeCheck SoftHard="Soft" def:ItemOID="IT.LB.LBCAT" Comparator="EQ">
               <CheckValue>CHEMISTRY</CheckValue>
            </RangeCheck>
            <RangeCheck SoftHard="Soft" def:ItemOID="IT.LB.LBTESTCD" Comparator="EQ">
               <CheckValue>ALT</CheckValue>
            </RangeCheck>
         </def:WhereClauseDef>
         <def:WhereClauseDef OID="WC.LB.LBTESTCD.AMYLASE.LB.LBCAT.1">
            <RangeCheck SoftHard="Soft" def:ItemOID="IT.LB.LBCAT" Comparator="EQ">
               <CheckValue>CHEMISTRY</CheckValue>
            </RangeCheck>
            <RangeCheck SoftHard="Soft" def:ItemOID="IT.LB.LBTESTCD" Comparator="EQ">
               <CheckValue>AMYLASE</CheckValue>
            </RangeCheck>
         </def:WhereClauseDef>
         <def:WhereClauseDef OID="WC.LB.LBTESTCD.APTT.LB.LBCAT.2">
            <RangeCheck SoftHard="Soft" def:ItemOID="IT.LB.LBCAT" Comparator="EQ">
               <CheckValue>HEMATOLOGY</CheckValue>
            </RangeCheck>
            <RangeCheck SoftHard="Soft" def:ItemOID="IT.LB.LBTESTCD" Comparator="EQ">
               <CheckValue>APTT</CheckValue>
            </RangeCheck>
         </def:WhereClauseDef>
         <def:WhereClauseDef OID="WC.LB.LBTESTCD.AST.LB.LBCAT.1">
            <RangeCheck SoftHard="Soft" def:ItemOID="IT.LB.LBCAT" Comparator="EQ">
               <CheckValue>CHEMISTRY</CheckValue>
            </RangeCheck>
            <RangeCheck SoftHard="Soft" def:ItemOID="IT.LB.LBTESTCD" Comparator="EQ">
               <CheckValue>AST</CheckValue>
            </RangeCheck>
         </def:WhereClauseDef>
         <def:WhereClauseDef OID="WC.LB.LBTESTCD.BACT.LB.LBCAT.4">
            <RangeCheck SoftHard="Soft" def:ItemOID="IT.LB.LBCAT" Comparator="EQ">
               <CheckValue>URINALYSIS</CheckValue>
            </RangeCheck>
            <RangeCheck SoftHard="Soft" def:ItemOID="IT.LB.LBTESTCD" Comparator="EQ">
               <CheckValue>BACT</CheckValue>
            </RangeCheck>
         </def:WhereClauseDef>
         <def:WhereClauseDef OID="WC.LB.LBTESTCD.BASO.LB.LBCAT.2">
            <RangeCheck SoftHard="Soft" def:ItemOID="IT.LB.LBCAT" Comparator="EQ">
               <CheckValue>HEMATOLOGY</CheckValue>
            </RangeCheck>
            <RangeCheck SoftHard="Soft" def:ItemOID="IT.LB.LBTESTCD" Comparator="EQ">
               <CheckValue>BASO</CheckValue>
            </RangeCheck>
         </def:WhereClauseDef>
         <def:WhereClauseDef OID="WC.LB.LBTESTCD.BASOLE.LB.LBCAT.2">
            <RangeCheck SoftHard="Soft" def:ItemOID="IT.LB.LBCAT" Comparator="EQ">
               <CheckValue>HEMATOLOGY</CheckValue>
            </RangeCheck>
            <RangeCheck SoftHard="Soft" def:ItemOID="IT.LB.LBTESTCD" Comparator="EQ">
               <CheckValue>BASOLE</CheckValue>
            </RangeCheck>
         </def:WhereClauseDef>
         <def:WhereClauseDef OID="WC.LB.LBTESTCD.BILDIR.LB.LBCAT.1">
            <RangeCheck SoftHard="Soft" def:ItemOID="IT.LB.LBCAT" Comparator="EQ">
               <CheckValue>CHEMISTRY</CheckValue>
            </RangeCheck>
            <RangeCheck SoftHard="Soft" def:ItemOID="IT.LB.LBTESTCD" Comparator="EQ">
               <CheckValue>BILDIR</CheckValue>
            </RangeCheck>
         </def:WhereClauseDef>
         <def:WhereClauseDef OID="WC.LB.LBTESTCD.BILI.LB.LBCAT.4.LB.LBSCAT.8">
            <RangeCheck SoftHard="Soft" def:ItemOID="IT.LB.LBCAT" Comparator="EQ">
               <CheckValue>URINALYSIS</CheckValue>
            </RangeCheck>
            <RangeCheck SoftHard="Soft" def:ItemOID="IT.LB.LBSCAT" Comparator="EQ">
               <CheckValue>QUALITATIVE</CheckValue>
            </RangeCheck>
            <RangeCheck SoftHard="Soft" def:ItemOID="IT.LB.LBTESTCD" Comparator="EQ">
               <CheckValue>BILI</CheckValue>
            </RangeCheck>
         </def:WhereClauseDef>
         <def:WhereClauseDef OID="WC.LB.LBTESTCD.CA.LB.LBCAT.1">
            <RangeCheck SoftHard="Soft" def:ItemOID="IT.LB.LBCAT" Comparator="EQ">
               <CheckValue>CHEMISTRY</CheckValue>
            </RangeCheck>
            <RangeCheck SoftHard="Soft" def:ItemOID="IT.LB.LBTESTCD" Comparator="EQ">
               <CheckValue>CA</CheckValue>
            </RangeCheck>
         </def:WhereClauseDef>
         <def:WhereClauseDef OID="WC.LB.LBTESTCD.CALPRO.LB.LBCAT.3">
            <RangeCheck SoftHard="Soft" def:ItemOID="IT.LB.LBCAT" Comparator="EQ">
               <CheckValue>OTHER</CheckValue>
            </RangeCheck>
            <RangeCheck SoftHard="Soft" def:ItemOID="IT.LB.LBTESTCD" Comparator="EQ">
               <CheckValue>CALPRO</CheckValue>
            </RangeCheck>
         </def:WhereClauseDef>
         <def:WhereClauseDef OID="WC.LB.LBTESTCD.CK.LB.LBCAT.1">
            <RangeCheck SoftHard="Soft" def:ItemOID="IT.LB.LBCAT" Comparator="EQ">
               <CheckValue>CHEMISTRY</CheckValue>
            </RangeCheck>
            <RangeCheck SoftHard="Soft" def:ItemOID="IT.LB.LBTESTCD" Comparator="EQ">
               <CheckValue>CK</CheckValue>
            </RangeCheck>
         </def:WhereClauseDef>
         <def:WhereClauseDef OID="WC.LB.LBTESTCD.CL.LB.LBCAT.1">
            <RangeCheck SoftHard="Soft" def:ItemOID="IT.LB.LBCAT" Comparator="EQ">
               <CheckValue>CHEMISTRY</CheckValue>
            </RangeCheck>
            <RangeCheck SoftHard="Soft" def:ItemOID="IT.LB.LBTESTCD" Comparator="EQ">
               <CheckValue>CL</CheckValue>
            </RangeCheck>
         </def:WhereClauseDef>
         <def:WhereClauseDef OID="WC.LB.LBTESTCD.CREAT.LB.LBCAT.1">
            <RangeCheck SoftHard="Soft" def:ItemOID="IT.LB.LBCAT" Comparator="EQ">
               <CheckValue>CHEMISTRY</CheckValue>
            </RangeCheck>
            <RangeCheck SoftHard="Soft" def:ItemOID="IT.LB.LBTESTCD" Comparator="EQ">
               <CheckValue>CREAT</CheckValue>
            </RangeCheck>
         </def:WhereClauseDef>
         <def:WhereClauseDef OID="WC.LB.LBTESTCD.CRP.LB.LBCAT.3">
            <RangeCheck SoftHard="Soft" def:ItemOID="IT.LB.LBCAT" Comparator="EQ">
               <CheckValue>OTHER</CheckValue>
            </RangeCheck>
            <RangeCheck SoftHard="Soft" def:ItemOID="IT.LB.LBTESTCD" Comparator="EQ">
               <CheckValue>CRP</CheckValue>
            </RangeCheck>
         </def:WhereClauseDef>
         <def:WhereClauseDef OID="WC.LB.LBTESTCD.CSGRAN.LB.LBCAT.4">
            <RangeCheck SoftHard="Soft" def:ItemOID="IT.LB.LBCAT" Comparator="EQ">
               <CheckValue>URINALYSIS</CheckValue>
            </RangeCheck>
            <RangeCheck SoftHard="Soft" def:ItemOID="IT.LB.LBTESTCD" Comparator="EQ">
               <CheckValue>CSGRAN</CheckValue>
            </RangeCheck>
         </def:WhereClauseDef>
         <def:WhereClauseDef OID="WC.LB.LBTESTCD.CSHYAL.LB.LBCAT.4">
            <RangeCheck SoftHard="Soft" def:ItemOID="IT.LB.LBCAT" Comparator="EQ">
               <CheckValue>URINALYSIS</CheckValue>
            </RangeCheck>
            <RangeCheck SoftHard="Soft" def:ItemOID="IT.LB.LBTESTCD" Comparator="EQ">
               <CheckValue>CSHYAL</CheckValue>
            </RangeCheck>
         </def:WhereClauseDef>
         <def:WhereClauseDef OID="WC.LB.LBTESTCD.CSRBC.LB.LBCAT.4">
            <RangeCheck SoftHard="Soft" def:ItemOID="IT.LB.LBCAT" Comparator="EQ">
               <CheckValue>URINALYSIS</CheckValue>
            </RangeCheck>
            <RangeCheck SoftHard="Soft" def:ItemOID="IT.LB.LBTESTCD" Comparator="EQ">
               <CheckValue>CSRBC</CheckValue>
            </RangeCheck>
         </def:WhereClauseDef>
         <def:WhereClauseDef OID="WC.LB.LBTESTCD.CYAMMBIU.LB.LBCAT.4">
            <RangeCheck SoftHard="Soft" def:ItemOID="IT.LB.LBCAT" Comparator="EQ">
               <CheckValue>URINALYSIS</CheckValue>
            </RangeCheck>
            <RangeCheck SoftHard="Soft" def:ItemOID="IT.LB.LBTESTCD" Comparator="EQ">
               <CheckValue>CYAMMBIU</CheckValue>
            </RangeCheck>
         </def:WhereClauseDef>
         <def:WhereClauseDef OID="WC.LB.LBTESTCD.CYCAOXA.LB.LBCAT.4">
            <RangeCheck SoftHard="Soft" def:ItemOID="IT.LB.LBCAT" Comparator="EQ">
               <CheckValue>URINALYSIS</CheckValue>
            </RangeCheck>
            <RangeCheck SoftHard="Soft" def:ItemOID="IT.LB.LBTESTCD" Comparator="EQ">
               <CheckValue>CYCAOXA</CheckValue>
            </RangeCheck>
         </def:WhereClauseDef>
         <def:WhereClauseDef OID="WC.LB.LBTESTCD.CYTRPHOS.LB.LBCAT.4">
            <RangeCheck SoftHard="Soft" def:ItemOID="IT.LB.LBCAT" Comparator="EQ">
               <CheckValue>URINALYSIS</CheckValue>
            </RangeCheck>
            <RangeCheck SoftHard="Soft" def:ItemOID="IT.LB.LBTESTCD" Comparator="EQ">
               <CheckValue>CYTRPHOS</CheckValue>
            </RangeCheck>
         </def:WhereClauseDef>
         <def:WhereClauseDef OID="WC.LB.LBTESTCD.CYURIAC.LB.LBCAT.4">
            <RangeCheck SoftHard="Soft" def:ItemOID="IT.LB.LBCAT" Comparator="EQ">
               <CheckValue>URINALYSIS</CheckValue>
            </RangeCheck>
            <RangeCheck SoftHard="Soft" def:ItemOID="IT.LB.LBTESTCD" Comparator="EQ">
               <CheckValue>CYURIAC</CheckValue>
            </RangeCheck>
         </def:WhereClauseDef>
         <def:WhereClauseDef OID="WC.LB.LBTESTCD.EOS.LB.LBCAT.2">
            <RangeCheck SoftHard="Soft" def:ItemOID="IT.LB.LBCAT" Comparator="EQ">
               <CheckValue>HEMATOLOGY</CheckValue>
            </RangeCheck>
            <RangeCheck SoftHard="Soft" def:ItemOID="IT.LB.LBTESTCD" Comparator="EQ">
               <CheckValue>EOS</CheckValue>
            </RangeCheck>
         </def:WhereClauseDef>
         <def:WhereClauseDef OID="WC.LB.LBTESTCD.EOSLE.LB.LBCAT.2">
            <RangeCheck SoftHard="Soft" def:ItemOID="IT.LB.LBCAT" Comparator="EQ">
               <CheckValue>HEMATOLOGY</CheckValue>
            </RangeCheck>
            <RangeCheck SoftHard="Soft" def:ItemOID="IT.LB.LBTESTCD" Comparator="EQ">
               <CheckValue>EOSLE</CheckValue>
            </RangeCheck>
         </def:WhereClauseDef>
         <def:WhereClauseDef OID="WC.LB.LBTESTCD.EPISQCE.LB.LBCAT.4">
            <RangeCheck SoftHard="Soft" def:ItemOID="IT.LB.LBCAT" Comparator="EQ">
               <CheckValue>URINALYSIS</CheckValue>
            </RangeCheck>
            <RangeCheck SoftHard="Soft" def:ItemOID="IT.LB.LBTESTCD" Comparator="EQ">
               <CheckValue>EPISQCE</CheckValue>
            </RangeCheck>
         </def:WhereClauseDef>
         <def:WhereClauseDef OID="WC.LB.LBTESTCD.EPITCE.LB.LBCAT.4">
            <RangeCheck SoftHard="Soft" def:ItemOID="IT.LB.LBCAT" Comparator="EQ">
               <CheckValue>URINALYSIS</CheckValue>
            </RangeCheck>
            <RangeCheck SoftHard="Soft" def:ItemOID="IT.LB.LBTESTCD" Comparator="EQ">
               <CheckValue>EPITCE</CheckValue>
            </RangeCheck>
         </def:WhereClauseDef>
         <def:WhereClauseDef OID="WC.LB.LBTESTCD.EPITUCE.LB.LBCAT.4">
            <RangeCheck SoftHard="Soft" def:ItemOID="IT.LB.LBCAT" Comparator="EQ">
               <CheckValue>URINALYSIS</CheckValue>
            </RangeCheck>
            <RangeCheck SoftHard="Soft" def:ItemOID="IT.LB.LBTESTCD" Comparator="EQ">
               <CheckValue>EPITUCE</CheckValue>
            </RangeCheck>
         </def:WhereClauseDef>
         <def:WhereClauseDef OID="WC.LB.LBTESTCD.FSH.LB.LBCAT.3">
            <RangeCheck SoftHard="Soft" def:ItemOID="IT.LB.LBCAT" Comparator="EQ">
               <CheckValue>OTHER</CheckValue>
            </RangeCheck>
            <RangeCheck SoftHard="Soft" def:ItemOID="IT.LB.LBTESTCD" Comparator="EQ">
               <CheckValue>FSH</CheckValue>
            </RangeCheck>
         </def:WhereClauseDef>
         <def:WhereClauseDef OID="WC.LB.LBTESTCD.GGT.LB.LBCAT.1">
            <RangeCheck SoftHard="Soft" def:ItemOID="IT.LB.LBCAT" Comparator="EQ">
               <CheckValue>CHEMISTRY</CheckValue>
            </RangeCheck>
            <RangeCheck SoftHard="Soft" def:ItemOID="IT.LB.LBTESTCD" Comparator="EQ">
               <CheckValue>GGT</CheckValue>
            </RangeCheck>
         </def:WhereClauseDef>
         <def:WhereClauseDef OID="WC.LB.LBTESTCD.GLUC.LB.LBCAT.4.LB.LBSCAT.8">
            <RangeCheck SoftHard="Soft" def:ItemOID="IT.LB.LBCAT" Comparator="EQ">
               <CheckValue>URINALYSIS</CheckValue>
            </RangeCheck>
            <RangeCheck SoftHard="Soft" def:ItemOID="IT.LB.LBSCAT" Comparator="EQ">
               <CheckValue>QUALITATIVE</CheckValue>
            </RangeCheck>
            <RangeCheck SoftHard="Soft" def:ItemOID="IT.LB.LBTESTCD" Comparator="EQ">
               <CheckValue>GLUC</CheckValue>
            </RangeCheck>
         </def:WhereClauseDef>
         <def:WhereClauseDef OID="WC.LB.LBTESTCD.HBCAB.LB.LBCAT.3.LB.LBSCAT.4">
            <RangeCheck SoftHard="Soft" def:ItemOID="IT.LB.LBCAT" Comparator="EQ">
               <CheckValue>OTHER</CheckValue>
            </RangeCheck>
            <RangeCheck SoftHard="Soft" def:ItemOID="IT.LB.LBSCAT" Comparator="EQ">
               <CheckValue>QUALITATIVE</CheckValue>
            </RangeCheck>
            <RangeCheck SoftHard="Soft" def:ItemOID="IT.LB.LBTESTCD" Comparator="EQ">
               <CheckValue>HBCAB</CheckValue>
            </RangeCheck>
         </def:WhereClauseDef>
         <def:WhereClauseDef OID="WC.LB.LBTESTCD.HBCABSC.LB.LBCAT.3">
            <RangeCheck SoftHard="Soft" def:ItemOID="IT.LB.LBCAT" Comparator="EQ">
               <CheckValue>OTHER</CheckValue>
            </RangeCheck>
            <RangeCheck SoftHard="Soft" def:ItemOID="IT.LB.LBTESTCD" Comparator="EQ">
               <CheckValue>HBCABSC</CheckValue>
            </RangeCheck>
         </def:WhereClauseDef>
         <def:WhereClauseDef OID="WC.LB.LBTESTCD.HBSAB.LB.LBCAT.3.LB.LBSCAT.4">
            <RangeCheck SoftHard="Soft" def:ItemOID="IT.LB.LBCAT" Comparator="EQ">
               <CheckValue>OTHER</CheckValue>
            </RangeCheck>
            <RangeCheck SoftHard="Soft" def:ItemOID="IT.LB.LBSCAT" Comparator="EQ">
               <CheckValue>QUALITATIVE</CheckValue>
            </RangeCheck>
            <RangeCheck SoftHard="Soft" def:ItemOID="IT.LB.LBTESTCD" Comparator="EQ">
               <CheckValue>HBSAB</CheckValue>
            </RangeCheck>
         </def:WhereClauseDef>
         <def:WhereClauseDef OID="WC.LB.LBTESTCD.HBSAG.LB.LBCAT.3.LB.LBSCAT.4">
            <RangeCheck SoftHard="Soft" def:ItemOID="IT.LB.LBCAT" Comparator="EQ">
               <CheckValue>OTHER</CheckValue>
            </RangeCheck>
            <RangeCheck SoftHard="Soft" def:ItemOID="IT.LB.LBSCAT" Comparator="EQ">
               <CheckValue>QUALITATIVE</CheckValue>
            </RangeCheck>
            <RangeCheck SoftHard="Soft" def:ItemOID="IT.LB.LBTESTCD" Comparator="EQ">
               <CheckValue>HBSAG</CheckValue>
            </RangeCheck>
         </def:WhereClauseDef>
         <def:WhereClauseDef OID="WC.LB.LBTESTCD.HCAB.LB.LBCAT.3.LB.LBSCAT.4">
            <RangeCheck SoftHard="Soft" def:ItemOID="IT.LB.LBCAT" Comparator="EQ">
               <CheckValue>OTHER</CheckValue>
            </RangeCheck>
            <RangeCheck SoftHard="Soft" def:ItemOID="IT.LB.LBSCAT" Comparator="EQ">
               <CheckValue>QUALITATIVE</CheckValue>
            </RangeCheck>
            <RangeCheck SoftHard="Soft" def:ItemOID="IT.LB.LBTESTCD" Comparator="EQ">
               <CheckValue>HCAB</CheckValue>
            </RangeCheck>
         </def:WhereClauseDef>
         <def:WhereClauseDef OID="WC.LB.LBTESTCD.HCG.LB.LBCAT.4">
            <RangeCheck SoftHard="Soft" def:ItemOID="IT.LB.LBCAT" Comparator="EQ">
               <CheckValue>URINALYSIS</CheckValue>
            </RangeCheck>
            <RangeCheck SoftHard="Soft" def:ItemOID="IT.LB.LBTESTCD" Comparator="EQ">
               <CheckValue>HCG</CheckValue>
            </RangeCheck>
         </def:WhereClauseDef>
         <def:WhereClauseDef OID="WC.LB.LBTESTCD.HCGNDI.LB.LBCAT.3">
            <RangeCheck SoftHard="Soft" def:ItemOID="IT.LB.LBCAT" Comparator="EQ">
               <CheckValue>OTHER</CheckValue>
            </RangeCheck>
            <RangeCheck SoftHard="Soft" def:ItemOID="IT.LB.LBTESTCD" Comparator="EQ">
               <CheckValue>HCGNDI</CheckValue>
            </RangeCheck>
         </def:WhereClauseDef>
         <def:WhereClauseDef OID="WC.LB.LBTESTCD.HCT.LB.LBCAT.2">
            <RangeCheck SoftHard="Soft" def:ItemOID="IT.LB.LBCAT" Comparator="EQ">
               <CheckValue>HEMATOLOGY</CheckValue>
            </RangeCheck>
            <RangeCheck SoftHard="Soft" def:ItemOID="IT.LB.LBTESTCD" Comparator="EQ">
               <CheckValue>HCT</CheckValue>
            </RangeCheck>
         </def:WhereClauseDef>
         <def:WhereClauseDef OID="WC.LB.LBTESTCD.HGB.LB.LBCAT.2">
            <RangeCheck SoftHard="Soft" def:ItemOID="IT.LB.LBCAT" Comparator="EQ">
               <CheckValue>HEMATOLOGY</CheckValue>
            </RangeCheck>
            <RangeCheck SoftHard="Soft" def:ItemOID="IT.LB.LBTESTCD" Comparator="EQ">
               <CheckValue>HGB</CheckValue>
            </RangeCheck>
         </def:WhereClauseDef>
         <def:WhereClauseDef OID="WC.LB.LBTESTCD.HIVAB.LB.LBCAT.3.LB.LBSCAT.4">
            <RangeCheck SoftHard="Soft" def:ItemOID="IT.LB.LBCAT" Comparator="EQ">
               <CheckValue>OTHER</CheckValue>
            </RangeCheck>
            <RangeCheck SoftHard="Soft" def:ItemOID="IT.LB.LBSCAT" Comparator="EQ">
               <CheckValue>QUALITATIVE</CheckValue>
            </RangeCheck>
            <RangeCheck SoftHard="Soft" def:ItemOID="IT.LB.LBTESTCD" Comparator="EQ">
               <CheckValue>HIVAB</CheckValue>
            </RangeCheck>
         </def:WhereClauseDef>
         <def:WhereClauseDef OID="WC.LB.LBTESTCD.IFNG.LB.LBCAT.3.LB.LBSCAT.2">
            <RangeCheck SoftHard="Soft" def:ItemOID="IT.LB.LBCAT" Comparator="EQ">
               <CheckValue>OTHER</CheckValue>
            </RangeCheck>
            <RangeCheck SoftHard="Soft" def:ItemOID="IT.LB.LBSCAT" Comparator="EQ">
               <CheckValue>PANEL A</CheckValue>
            </RangeCheck>
            <RangeCheck SoftHard="Soft" def:ItemOID="IT.LB.LBTESTCD" Comparator="EQ">
               <CheckValue>IFNG</CheckValue>
            </RangeCheck>
         </def:WhereClauseDef>
         <def:WhereClauseDef OID="WC.LB.LBTESTCD.INR.LB.LBCAT.2">
            <RangeCheck SoftHard="Soft" def:ItemOID="IT.LB.LBCAT" Comparator="EQ">
               <CheckValue>HEMATOLOGY</CheckValue>
            </RangeCheck>
            <RangeCheck SoftHard="Soft" def:ItemOID="IT.LB.LBTESTCD" Comparator="EQ">
               <CheckValue>INR</CheckValue>
            </RangeCheck>
         </def:WhereClauseDef>
         <def:WhereClauseDef OID="WC.LB.LBTESTCD.K.LB.LBCAT.1">
            <RangeCheck SoftHard="Soft" def:ItemOID="IT.LB.LBCAT" Comparator="EQ">
               <CheckValue>CHEMISTRY</CheckValue>
            </RangeCheck>
            <RangeCheck SoftHard="Soft" def:ItemOID="IT.LB.LBTESTCD" Comparator="EQ">
               <CheckValue>K</CheckValue>
            </RangeCheck>
         </def:WhereClauseDef>
         <def:WhereClauseDef OID="WC.LB.LBTESTCD.KETONES.LB.LBCAT.4.LB.LBSCAT.8">
            <RangeCheck SoftHard="Soft" def:ItemOID="IT.LB.LBCAT" Comparator="EQ">
               <CheckValue>URINALYSIS</CheckValue>
            </RangeCheck>
            <RangeCheck SoftHard="Soft" def:ItemOID="IT.LB.LBSCAT" Comparator="EQ">
               <CheckValue>QUALITATIVE</CheckValue>
            </RangeCheck>
            <RangeCheck SoftHard="Soft" def:ItemOID="IT.LB.LBTESTCD" Comparator="EQ">
               <CheckValue>KETONES</CheckValue>
            </RangeCheck>
         </def:WhereClauseDef>
         <def:WhereClauseDef OID="WC.LB.LBTESTCD.LBALL.LB.LBCAT.3.LB.LBSCAT.1">
            <RangeCheck SoftHard="Soft" def:ItemOID="IT.LB.LBCAT" Comparator="EQ">
               <CheckValue>OTHER</CheckValue>
            </RangeCheck>
            <RangeCheck SoftHard="Soft" def:ItemOID="IT.LB.LBSCAT" Comparator="EQ">
               <CheckValue>BLOOD</CheckValue>
            </RangeCheck>
            <RangeCheck SoftHard="Soft" def:ItemOID="IT.LB.LBTESTCD" Comparator="EQ">
               <CheckValue>LBALL</CheckValue>
            </RangeCheck>
         </def:WhereClauseDef>
         <def:WhereClauseDef OID="WC.LB.LBTESTCD.LDH.LB.LBCAT.1">
            <RangeCheck SoftHard="Soft" def:ItemOID="IT.LB.LBCAT" Comparator="EQ">
               <CheckValue>CHEMISTRY</CheckValue>
            </RangeCheck>
            <RangeCheck SoftHard="Soft" def:ItemOID="IT.LB.LBTESTCD" Comparator="EQ">
               <CheckValue>LDH</CheckValue>
            </RangeCheck>
         </def:WhereClauseDef>
         <def:WhereClauseDef OID="WC.LB.LBTESTCD.LEUKASE.LB.LBCAT.4.LB.LBSCAT.8">
            <RangeCheck SoftHard="Soft" def:ItemOID="IT.LB.LBCAT" Comparator="EQ">
               <CheckValue>URINALYSIS</CheckValue>
            </RangeCheck>
            <RangeCheck SoftHard="Soft" def:ItemOID="IT.LB.LBSCAT" Comparator="EQ">
               <CheckValue>QUALITATIVE</CheckValue>
            </RangeCheck>
            <RangeCheck SoftHard="Soft" def:ItemOID="IT.LB.LBTESTCD" Comparator="EQ">
               <CheckValue>LEUKASE</CheckValue>
            </RangeCheck>
         </def:WhereClauseDef>
         <def:WhereClauseDef OID="WC.LB.LBTESTCD.LIPASET.LB.LBCAT.1">
            <RangeCheck SoftHard="Soft" def:ItemOID="IT.LB.LBCAT" Comparator="EQ">
               <CheckValue>CHEMISTRY</CheckValue>
            </RangeCheck>
            <RangeCheck SoftHard="Soft" def:ItemOID="IT.LB.LBTESTCD" Comparator="EQ">
               <CheckValue>LIPASET</CheckValue>
            </RangeCheck>
         </def:WhereClauseDef>
         <def:WhereClauseDef OID="WC.LB.LBTESTCD.LRG1.LB.LBCAT.3">
            <RangeCheck SoftHard="Soft" def:ItemOID="IT.LB.LBCAT" Comparator="EQ">
               <CheckValue>OTHER</CheckValue>
            </RangeCheck>
            <RangeCheck SoftHard="Soft" def:ItemOID="IT.LB.LBTESTCD" Comparator="EQ">
               <CheckValue>LRG1</CheckValue>
            </RangeCheck>
         </def:WhereClauseDef>
         <def:WhereClauseDef OID="WC.LB.LBTESTCD.LYM.LB.LBCAT.2">
            <RangeCheck SoftHard="Soft" def:ItemOID="IT.LB.LBCAT" Comparator="EQ">
               <CheckValue>HEMATOLOGY</CheckValue>
            </RangeCheck>
            <RangeCheck SoftHard="Soft" def:ItemOID="IT.LB.LBTESTCD" Comparator="EQ">
               <CheckValue>LYM</CheckValue>
            </RangeCheck>
         </def:WhereClauseDef>
         <def:WhereClauseDef OID="WC.LB.LBTESTCD.LYMLE.LB.LBCAT.2">
            <RangeCheck SoftHard="Soft" def:ItemOID="IT.LB.LBCAT" Comparator="EQ">
               <CheckValue>HEMATOLOGY</CheckValue>
            </RangeCheck>
            <RangeCheck SoftHard="Soft" def:ItemOID="IT.LB.LBTESTCD" Comparator="EQ">
               <CheckValue>LYMLE</CheckValue>
            </RangeCheck>
         </def:WhereClauseDef>
         <def:WhereClauseDef OID="WC.LB.LBTESTCD.MG.LB.LBCAT.1">
            <RangeCheck SoftHard="Soft" def:ItemOID="IT.LB.LBCAT" Comparator="EQ">
               <CheckValue>CHEMISTRY</CheckValue>
            </RangeCheck>
            <RangeCheck SoftHard="Soft" def:ItemOID="IT.LB.LBTESTCD" Comparator="EQ">
               <CheckValue>MG</CheckValue>
            </RangeCheck>
         </def:WhereClauseDef>
         <def:WhereClauseDef OID="WC.LB.LBTESTCD.MONO.LB.LBCAT.2">
            <RangeCheck SoftHard="Soft" def:ItemOID="IT.LB.LBCAT" Comparator="EQ">
               <CheckValue>HEMATOLOGY</CheckValue>
            </RangeCheck>
            <RangeCheck SoftHard="Soft" def:ItemOID="IT.LB.LBTESTCD" Comparator="EQ">
               <CheckValue>MONO</CheckValue>
            </RangeCheck>
         </def:WhereClauseDef>
         <def:WhereClauseDef OID="WC.LB.LBTESTCD.MONOLE.LB.LBCAT.2">
            <RangeCheck SoftHard="Soft" def:ItemOID="IT.LB.LBCAT" Comparator="EQ">
               <CheckValue>HEMATOLOGY</CheckValue>
            </RangeCheck>
            <RangeCheck SoftHard="Soft" def:ItemOID="IT.LB.LBTESTCD" Comparator="EQ">
               <CheckValue>MONOLE</CheckValue>
            </RangeCheck>
         </def:WhereClauseDef>
         <def:WhereClauseDef OID="WC.LB.LBTESTCD.MUCTHR.LB.LBCAT.4">
            <RangeCheck SoftHard="Soft" def:ItemOID="IT.LB.LBCAT" Comparator="EQ">
               <CheckValue>URINALYSIS</CheckValue>
            </RangeCheck>
            <RangeCheck SoftHard="Soft" def:ItemOID="IT.LB.LBTESTCD" Comparator="EQ">
               <CheckValue>MUCTHR</CheckValue>
            </RangeCheck>
         </def:WhereClauseDef>
         <def:WhereClauseDef OID="WC.LB.LBTESTCD.NEUT.LB.LBCAT.2">
            <RangeCheck SoftHard="Soft" def:ItemOID="IT.LB.LBCAT" Comparator="EQ">
               <CheckValue>HEMATOLOGY</CheckValue>
            </RangeCheck>
            <RangeCheck SoftHard="Soft" def:ItemOID="IT.LB.LBTESTCD" Comparator="EQ">
               <CheckValue>NEUT</CheckValue>
            </RangeCheck>
         </def:WhereClauseDef>
         <def:WhereClauseDef OID="WC.LB.LBTESTCD.NEUTLE.LB.LBCAT.2">
            <RangeCheck SoftHard="Soft" def:ItemOID="IT.LB.LBCAT" Comparator="EQ">
               <CheckValue>HEMATOLOGY</CheckValue>
            </RangeCheck>
            <RangeCheck SoftHard="Soft" def:ItemOID="IT.LB.LBTESTCD" Comparator="EQ">
               <CheckValue>NEUTLE</CheckValue>
            </RangeCheck>
         </def:WhereClauseDef>
         <def:WhereClauseDef OID="WC.LB.LBTESTCD.NITRITE.LB.LBCAT.4.LB.LBSCAT.8">
            <RangeCheck SoftHard="Soft" def:ItemOID="IT.LB.LBCAT" Comparator="EQ">
               <CheckValue>URINALYSIS</CheckValue>
            </RangeCheck>
            <RangeCheck SoftHard="Soft" def:ItemOID="IT.LB.LBSCAT" Comparator="EQ">
               <CheckValue>QUALITATIVE</CheckValue>
            </RangeCheck>
            <RangeCheck SoftHard="Soft" def:ItemOID="IT.LB.LBTESTCD" Comparator="EQ">
               <CheckValue>NITRITE</CheckValue>
            </RangeCheck>
         </def:WhereClauseDef>
         <def:WhereClauseDef OID="WC.LB.LBTESTCD.OCCBLD.LB.LBCAT.4.LB.LBSCAT.8">
            <RangeCheck SoftHard="Soft" def:ItemOID="IT.LB.LBCAT" Comparator="EQ">
               <CheckValue>URINALYSIS</CheckValue>
            </RangeCheck>
            <RangeCheck SoftHard="Soft" def:ItemOID="IT.LB.LBSCAT" Comparator="EQ">
               <CheckValue>QUALITATIVE</CheckValue>
            </RangeCheck>
            <RangeCheck SoftHard="Soft" def:ItemOID="IT.LB.LBTESTCD" Comparator="EQ">
               <CheckValue>OCCBLD</CheckValue>
            </RangeCheck>
         </def:WhereClauseDef>
         <def:WhereClauseDef OID="WC.LB.LBTESTCD.PH.LB.LBCAT.4">
            <RangeCheck SoftHard="Soft" def:ItemOID="IT.LB.LBCAT" Comparator="EQ">
               <CheckValue>URINALYSIS</CheckValue>
            </RangeCheck>
            <RangeCheck SoftHard="Soft" def:ItemOID="IT.LB.LBTESTCD" Comparator="EQ">
               <CheckValue>PH</CheckValue>
            </RangeCheck>
         </def:WhereClauseDef>
         <def:WhereClauseDef OID="WC.LB.LBTESTCD.PHOS.LB.LBCAT.1">
            <RangeCheck SoftHard="Soft" def:ItemOID="IT.LB.LBCAT" Comparator="EQ">
               <CheckValue>CHEMISTRY</CheckValue>
            </RangeCheck>
            <RangeCheck SoftHard="Soft" def:ItemOID="IT.LB.LBTESTCD" Comparator="EQ">
               <CheckValue>PHOS</CheckValue>
            </RangeCheck>
         </def:WhereClauseDef>
         <def:WhereClauseDef OID="WC.LB.LBTESTCD.PLAT.LB.LBCAT.2">
            <RangeCheck SoftHard="Soft" def:ItemOID="IT.LB.LBCAT" Comparator="EQ">
               <CheckValue>HEMATOLOGY</CheckValue>
            </RangeCheck>
            <RangeCheck SoftHard="Soft" def:ItemOID="IT.LB.LBTESTCD" Comparator="EQ">
               <CheckValue>PLAT</CheckValue>
            </RangeCheck>
         </def:WhereClauseDef>
         <def:WhereClauseDef OID="WC.LB.LBTESTCD.PROT.LB.LBCAT.4.LB.LBSCAT.8">
            <RangeCheck SoftHard="Soft" def:ItemOID="IT.LB.LBCAT" Comparator="EQ">
               <CheckValue>URINALYSIS</CheckValue>
            </RangeCheck>
            <RangeCheck SoftHard="Soft" def:ItemOID="IT.LB.LBSCAT" Comparator="EQ">
               <CheckValue>QUALITATIVE</CheckValue>
            </RangeCheck>
            <RangeCheck SoftHard="Soft" def:ItemOID="IT.LB.LBTESTCD" Comparator="EQ">
               <CheckValue>PROT</CheckValue>
            </RangeCheck>
         </def:WhereClauseDef>
         <def:WhereClauseDef OID="WC.LB.LBTESTCD.PT.LB.LBCAT.2">
            <RangeCheck SoftHard="Soft" def:ItemOID="IT.LB.LBCAT" Comparator="EQ">
               <CheckValue>HEMATOLOGY</CheckValue>
            </RangeCheck>
            <RangeCheck SoftHard="Soft" def:ItemOID="IT.LB.LBTESTCD" Comparator="EQ">
               <CheckValue>PT</CheckValue>
            </RangeCheck>
         </def:WhereClauseDef>
         <def:WhereClauseDef OID="WC.LB.LBTESTCD.RBC.LB.LBCAT.2">
            <RangeCheck SoftHard="Soft" def:ItemOID="IT.LB.LBCAT" Comparator="EQ">
               <CheckValue>HEMATOLOGY</CheckValue>
            </RangeCheck>
            <RangeCheck SoftHard="Soft" def:ItemOID="IT.LB.LBTESTCD" Comparator="EQ">
               <CheckValue>RBC</CheckValue>
            </RangeCheck>
         </def:WhereClauseDef>
         <def:WhereClauseDef OID="WC.LB.LBTESTCD.SODIUM.LB.LBCAT.1">
            <RangeCheck SoftHard="Soft" def:ItemOID="IT.LB.LBCAT" Comparator="EQ">
               <CheckValue>CHEMISTRY</CheckValue>
            </RangeCheck>
            <RangeCheck SoftHard="Soft" def:ItemOID="IT.LB.LBTESTCD" Comparator="EQ">
               <CheckValue>SODIUM</CheckValue>
            </RangeCheck>
         </def:WhereClauseDef>
         <def:WhereClauseDef OID="WC.LB.LBTESTCD.SPGRAV.LB.LBCAT.4">
            <RangeCheck SoftHard="Soft" def:ItemOID="IT.LB.LBCAT" Comparator="EQ">
               <CheckValue>URINALYSIS</CheckValue>
            </RangeCheck>
            <RangeCheck SoftHard="Soft" def:ItemOID="IT.LB.LBTESTCD" Comparator="EQ">
               <CheckValue>SPGRAV</CheckValue>
            </RangeCheck>
         </def:WhereClauseDef>
         <def:WhereClauseDef OID="WC.LB.LBTESTCD.URATE.LB.LBCAT.1">
            <RangeCheck SoftHard="Soft" def:ItemOID="IT.LB.LBCAT" Comparator="EQ">
               <CheckValue>CHEMISTRY</CheckValue>
            </RangeCheck>
            <RangeCheck SoftHard="Soft" def:ItemOID="IT.LB.LBTESTCD" Comparator="EQ">
               <CheckValue>URATE</CheckValue>
            </RangeCheck>
         </def:WhereClauseDef>
         <def:WhereClauseDef OID="WC.LB.LBTESTCD.UREAN.LB.LBCAT.1">
            <RangeCheck SoftHard="Soft" def:ItemOID="IT.LB.LBCAT" Comparator="EQ">
               <CheckValue>CHEMISTRY</CheckValue>
            </RangeCheck>
            <RangeCheck SoftHard="Soft" def:ItemOID="IT.LB.LBTESTCD" Comparator="EQ">
               <CheckValue>UREAN</CheckValue>
            </RangeCheck>
         </def:WhereClauseDef>
         <def:WhereClauseDef OID="WC.LB.LBTESTCD.WBC.LB.LBCAT.2">
            <RangeCheck SoftHard="Soft" def:ItemOID="IT.LB.LBCAT" Comparator="EQ">
               <CheckValue>HEMATOLOGY</CheckValue>
            </RangeCheck>
            <RangeCheck SoftHard="Soft" def:ItemOID="IT.LB.LBTESTCD" Comparator="EQ">
               <CheckValue>WBC</CheckValue>
            </RangeCheck>
         </def:WhereClauseDef>
         <def:WhereClauseDef OID="WC.LB.LBTESTCD.YEAST.LB.LBCAT.4">
            <RangeCheck SoftHard="Soft" def:ItemOID="IT.LB.LBCAT" Comparator="EQ">
               <CheckValue>URINALYSIS</CheckValue>
            </RangeCheck>
            <RangeCheck SoftHard="Soft" def:ItemOID="IT.LB.LBTESTCD" Comparator="EQ">
               <CheckValue>YEAST</CheckValue>
            </RangeCheck>
         </def:WhereClauseDef>
         <def:WhereClauseDef OID="WC.PC.PCTESTCD.VEDOLIZU.PC.PCCAT.1">
            <RangeCheck SoftHard="Soft" def:ItemOID="IT.PC.PCCAT" Comparator="EQ">
               <CheckValue>ANALYTE</CheckValue>
            </RangeCheck>
            <RangeCheck SoftHard="Soft" def:ItemOID="IT.PC.PCTESTCD" Comparator="EQ">
               <CheckValue>VEDOLIZU</CheckValue>
            </RangeCheck>
         </def:WhereClauseDef>
         <def:WhereClauseDef OID="WC.PE.PETESTCD.CARDIO">
            <RangeCheck SoftHard="Soft" def:ItemOID="IT.PE.PETESTCD" Comparator="EQ">
               <CheckValue>CARDIO</CheckValue>
            </RangeCheck>
         </def:WhereClauseDef>
         <def:WhereClauseDef OID="WC.PE.PETESTCD.DERM">
            <RangeCheck SoftHard="Soft" def:ItemOID="IT.PE.PETESTCD" Comparator="EQ">
               <CheckValue>DERM</CheckValue>
            </RangeCheck>
         </def:WhereClauseDef>
         <def:WhereClauseDef OID="WC.PE.PETESTCD.ENT">
            <RangeCheck SoftHard="Soft" def:ItemOID="IT.PE.PETESTCD" Comparator="EQ">
               <CheckValue>ENT</CheckValue>
            </RangeCheck>
         </def:WhereClauseDef>
         <def:WhereClauseDef OID="WC.PE.PETESTCD.EXTREM">
            <RangeCheck SoftHard="Soft" def:ItemOID="IT.PE.PETESTCD" Comparator="EQ">
               <CheckValue>EXTREM</CheckValue>
            </RangeCheck>
         </def:WhereClauseDef>
         <def:WhereClauseDef OID="WC.PE.PETESTCD.EYES">
            <RangeCheck SoftHard="Soft" def:ItemOID="IT.PE.PETESTCD" Comparator="EQ">
               <CheckValue>EYES</CheckValue>
            </RangeCheck>
         </def:WhereClauseDef>
         <def:WhereClauseDef OID="WC.PE.PETESTCD.GASTRO">
            <RangeCheck SoftHard="Soft" def:ItemOID="IT.PE.PETESTCD" Comparator="EQ">
               <CheckValue>GASTRO</CheckValue>
            </RangeCheck>
         </def:WhereClauseDef>
         <def:WhereClauseDef OID="WC.PE.PETESTCD.LYMPH">
            <RangeCheck SoftHard="Soft" def:ItemOID="IT.PE.PETESTCD" Comparator="EQ">
               <CheckValue>LYMPH</CheckValue>
            </RangeCheck>
         </def:WhereClauseDef>
         <def:WhereClauseDef OID="WC.PE.PETESTCD.MUSC">
            <RangeCheck SoftHard="Soft" def:ItemOID="IT.PE.PETESTCD" Comparator="EQ">
               <CheckValue>MUSC</CheckValue>
            </RangeCheck>
         </def:WhereClauseDef>
         <def:WhereClauseDef OID="WC.PE.PETESTCD.NERV">
            <RangeCheck SoftHard="Soft" def:ItemOID="IT.PE.PETESTCD" Comparator="EQ">
               <CheckValue>NERV</CheckValue>
            </RangeCheck>
         </def:WhereClauseDef>
         <def:WhereClauseDef OID="WC.PE.PETESTCD.OTHER">
            <RangeCheck SoftHard="Soft" def:ItemOID="IT.PE.PETESTCD" Comparator="EQ">
               <CheckValue>OTHER</CheckValue>
            </RangeCheck>
         </def:WhereClauseDef>
         <def:WhereClauseDef OID="WC.PE.PETESTCD.RESP">
            <RangeCheck SoftHard="Soft" def:ItemOID="IT.PE.PETESTCD" Comparator="EQ">
               <CheckValue>RESP</CheckValue>
            </RangeCheck>
         </def:WhereClauseDef>
         <def:WhereClauseDef OID="WC.QS.QSTESTCD.IBDQ0101.QS.QSCAT.1.QS.QSSCAT.1">
            <RangeCheck SoftHard="Soft" def:ItemOID="IT.QS.QSCAT" Comparator="EQ">
               <CheckValue>IBDQ</CheckValue>
            </RangeCheck>
            <RangeCheck SoftHard="Soft" def:ItemOID="IT.QS.QSSCAT" Comparator="EQ">
               <CheckValue>ABDOMINAL SYMPTOMS</CheckValue>
            </RangeCheck>
            <RangeCheck SoftHard="Soft" def:ItemOID="IT.QS.QSTESTCD" Comparator="EQ">
               <CheckValue>IBDQ0101</CheckValue>
            </RangeCheck>
         </def:WhereClauseDef>
         <def:WhereClauseDef OID="WC.QS.QSTESTCD.IBDQ0102.QS.QSCAT.1.QS.QSSCAT.3">
            <RangeCheck SoftHard="Soft" def:ItemOID="IT.QS.QSCAT" Comparator="EQ">
               <CheckValue>IBDQ</CheckValue>
            </RangeCheck>
            <RangeCheck SoftHard="Soft" def:ItemOID="IT.QS.QSSCAT" Comparator="EQ">
               <CheckValue>GENERAL CONDITION</CheckValue>
            </RangeCheck>
            <RangeCheck SoftHard="Soft" def:ItemOID="IT.QS.QSTESTCD" Comparator="EQ">
               <CheckValue>IBDQ0102</CheckValue>
            </RangeCheck>
         </def:WhereClauseDef>
         <def:WhereClauseDef OID="WC.QS.QSTESTCD.IBDQ0103.QS.QSCAT.1.QS.QSSCAT.2">
            <RangeCheck SoftHard="Soft" def:ItemOID="IT.QS.QSCAT" Comparator="EQ">
               <CheckValue>IBDQ</CheckValue>
            </RangeCheck>
            <RangeCheck SoftHard="Soft" def:ItemOID="IT.QS.QSSCAT" Comparator="EQ">
               <CheckValue>EMOTION</CheckValue>
            </RangeCheck>
            <RangeCheck SoftHard="Soft" def:ItemOID="IT.QS.QSTESTCD" Comparator="EQ">
               <CheckValue>IBDQ0103</CheckValue>
            </RangeCheck>
         </def:WhereClauseDef>
         <def:WhereClauseDef OID="WC.QS.QSTESTCD.IBDQ0104.QS.QSCAT.1.QS.QSSCAT.4">
            <RangeCheck SoftHard="Soft" def:ItemOID="IT.QS.QSCAT" Comparator="EQ">
               <CheckValue>IBDQ</CheckValue>
            </RangeCheck>
            <RangeCheck SoftHard="Soft" def:ItemOID="IT.QS.QSSCAT" Comparator="EQ">
               <CheckValue>SOCIAL FUNCTION</CheckValue>
            </RangeCheck>
            <RangeCheck SoftHard="Soft" def:ItemOID="IT.QS.QSTESTCD" Comparator="EQ">
               <CheckValue>IBDQ0104</CheckValue>
            </RangeCheck>
         </def:WhereClauseDef>
         <def:WhereClauseDef OID="WC.QS.QSTESTCD.IBDQ0105.QS.QSCAT.1.QS.QSSCAT.1">
            <RangeCheck SoftHard="Soft" def:ItemOID="IT.QS.QSCAT" Comparator="EQ">
               <CheckValue>IBDQ</CheckValue>
            </RangeCheck>
            <RangeCheck SoftHard="Soft" def:ItemOID="IT.QS.QSSCAT" Comparator="EQ">
               <CheckValue>ABDOMINAL SYMPTOMS</CheckValue>
            </RangeCheck>
            <RangeCheck SoftHard="Soft" def:ItemOID="IT.QS.QSTESTCD" Comparator="EQ">
               <CheckValue>IBDQ0105</CheckValue>
            </RangeCheck>
         </def:WhereClauseDef>
         <def:WhereClauseDef OID="WC.QS.QSTESTCD.IBDQ0106.QS.QSCAT.1.QS.QSSCAT.3">
            <RangeCheck SoftHard="Soft" def:ItemOID="IT.QS.QSCAT" Comparator="EQ">
               <CheckValue>IBDQ</CheckValue>
            </RangeCheck>
            <RangeCheck SoftHard="Soft" def:ItemOID="IT.QS.QSSCAT" Comparator="EQ">
               <CheckValue>GENERAL CONDITION</CheckValue>
            </RangeCheck>
            <RangeCheck SoftHard="Soft" def:ItemOID="IT.QS.QSTESTCD" Comparator="EQ">
               <CheckValue>IBDQ0106</CheckValue>
            </RangeCheck>
         </def:WhereClauseDef>
         <def:WhereClauseDef OID="WC.QS.QSTESTCD.IBDQ0107.QS.QSCAT.1.QS.QSSCAT.2">
            <RangeCheck SoftHard="Soft" def:ItemOID="IT.QS.QSCAT" Comparator="EQ">
               <CheckValue>IBDQ</CheckValue>
            </RangeCheck>
            <RangeCheck SoftHard="Soft" def:ItemOID="IT.QS.QSSCAT" Comparator="EQ">
               <CheckValue>EMOTION</CheckValue>
            </RangeCheck>
            <RangeCheck SoftHard="Soft" def:ItemOID="IT.QS.QSTESTCD" Comparator="EQ">
               <CheckValue>IBDQ0107</CheckValue>
            </RangeCheck>
         </def:WhereClauseDef>
         <def:WhereClauseDef OID="WC.QS.QSTESTCD.IBDQ0108.QS.QSCAT.1.QS.QSSCAT.4">
            <RangeCheck SoftHard="Soft" def:ItemOID="IT.QS.QSCAT" Comparator="EQ">
               <CheckValue>IBDQ</CheckValue>
            </RangeCheck>
            <RangeCheck SoftHard="Soft" def:ItemOID="IT.QS.QSSCAT" Comparator="EQ">
               <CheckValue>SOCIAL FUNCTION</CheckValue>
            </RangeCheck>
            <RangeCheck SoftHard="Soft" def:ItemOID="IT.QS.QSTESTCD" Comparator="EQ">
               <CheckValue>IBDQ0108</CheckValue>
            </RangeCheck>
         </def:WhereClauseDef>
         <def:WhereClauseDef OID="WC.QS.QSTESTCD.IBDQ0109.QS.QSCAT.1.QS.QSSCAT.1">
            <RangeCheck SoftHard="Soft" def:ItemOID="IT.QS.QSCAT" Comparator="EQ">
               <CheckValue>IBDQ</CheckValue>
            </RangeCheck>
            <RangeCheck SoftHard="Soft" def:ItemOID="IT.QS.QSSCAT" Comparator="EQ">
               <CheckValue>ABDOMINAL SYMPTOMS</CheckValue>
            </RangeCheck>
            <RangeCheck SoftHard="Soft" def:ItemOID="IT.QS.QSTESTCD" Comparator="EQ">
               <CheckValue>IBDQ0109</CheckValue>
            </RangeCheck>
         </def:WhereClauseDef>
         <def:WhereClauseDef OID="WC.QS.QSTESTCD.IBDQ0110.QS.QSCAT.1.QS.QSSCAT.3">
            <RangeCheck SoftHard="Soft" def:ItemOID="IT.QS.QSCAT" Comparator="EQ">
               <CheckValue>IBDQ</CheckValue>
            </RangeCheck>
            <RangeCheck SoftHard="Soft" def:ItemOID="IT.QS.QSSCAT" Comparator="EQ">
               <CheckValue>GENERAL CONDITION</CheckValue>
            </RangeCheck>
            <RangeCheck SoftHard="Soft" def:ItemOID="IT.QS.QSTESTCD" Comparator="EQ">
               <CheckValue>IBDQ0110</CheckValue>
            </RangeCheck>
         </def:WhereClauseDef>
         <def:WhereClauseDef OID="WC.QS.QSTESTCD.IBDQ0111.QS.QSCAT.1.QS.QSSCAT.2">
            <RangeCheck SoftHard="Soft" def:ItemOID="IT.QS.QSCAT" Comparator="EQ">
               <CheckValue>IBDQ</CheckValue>
            </RangeCheck>
            <RangeCheck SoftHard="Soft" def:ItemOID="IT.QS.QSSCAT" Comparator="EQ">
               <CheckValue>EMOTION</CheckValue>
            </RangeCheck>
            <RangeCheck SoftHard="Soft" def:ItemOID="IT.QS.QSTESTCD" Comparator="EQ">
               <CheckValue>IBDQ0111</CheckValue>
            </RangeCheck>
         </def:WhereClauseDef>
         <def:WhereClauseDef OID="WC.QS.QSTESTCD.IBDQ0112.QS.QSCAT.1.QS.QSSCAT.4">
            <RangeCheck SoftHard="Soft" def:ItemOID="IT.QS.QSCAT" Comparator="EQ">
               <CheckValue>IBDQ</CheckValue>
            </RangeCheck>
            <RangeCheck SoftHard="Soft" def:ItemOID="IT.QS.QSSCAT" Comparator="EQ">
               <CheckValue>SOCIAL FUNCTION</CheckValue>
            </RangeCheck>
            <RangeCheck SoftHard="Soft" def:ItemOID="IT.QS.QSTESTCD" Comparator="EQ">
               <CheckValue>IBDQ0112</CheckValue>
            </RangeCheck>
         </def:WhereClauseDef>
         <def:WhereClauseDef OID="WC.QS.QSTESTCD.IBDQ0113.QS.QSCAT.1.QS.QSSCAT.1">
            <RangeCheck SoftHard="Soft" def:ItemOID="IT.QS.QSCAT" Comparator="EQ">
               <CheckValue>IBDQ</CheckValue>
            </RangeCheck>
            <RangeCheck SoftHard="Soft" def:ItemOID="IT.QS.QSSCAT" Comparator="EQ">
               <CheckValue>ABDOMINAL SYMPTOMS</CheckValue>
            </RangeCheck>
            <RangeCheck SoftHard="Soft" def:ItemOID="IT.QS.QSTESTCD" Comparator="EQ">
               <CheckValue>IBDQ0113</CheckValue>
            </RangeCheck>
         </def:WhereClauseDef>
         <def:WhereClauseDef OID="WC.QS.QSTESTCD.IBDQ0114.QS.QSCAT.1.QS.QSSCAT.3">
            <RangeCheck SoftHard="Soft" def:ItemOID="IT.QS.QSCAT" Comparator="EQ">
               <CheckValue>IBDQ</CheckValue>
            </RangeCheck>
            <RangeCheck SoftHard="Soft" def:ItemOID="IT.QS.QSSCAT" Comparator="EQ">
               <CheckValue>GENERAL CONDITION</CheckValue>
            </RangeCheck>
            <RangeCheck SoftHard="Soft" def:ItemOID="IT.QS.QSTESTCD" Comparator="EQ">
               <CheckValue>IBDQ0114</CheckValue>
            </RangeCheck>
         </def:WhereClauseDef>
         <def:WhereClauseDef OID="WC.QS.QSTESTCD.IBDQ0115.QS.QSCAT.1.QS.QSSCAT.2">
            <RangeCheck SoftHard="Soft" def:ItemOID="IT.QS.QSCAT" Comparator="EQ">
               <CheckValue>IBDQ</CheckValue>
            </RangeCheck>
            <RangeCheck SoftHard="Soft" def:ItemOID="IT.QS.QSSCAT" Comparator="EQ">
               <CheckValue>EMOTION</CheckValue>
            </RangeCheck>
            <RangeCheck SoftHard="Soft" def:ItemOID="IT.QS.QSTESTCD" Comparator="EQ">
               <CheckValue>IBDQ0115</CheckValue>
            </RangeCheck>
         </def:WhereClauseDef>
         <def:WhereClauseDef OID="WC.QS.QSTESTCD.IBDQ0116.QS.QSCAT.1.QS.QSSCAT.4">
            <RangeCheck SoftHard="Soft" def:ItemOID="IT.QS.QSCAT" Comparator="EQ">
               <CheckValue>IBDQ</CheckValue>
            </RangeCheck>
            <RangeCheck SoftHard="Soft" def:ItemOID="IT.QS.QSSCAT" Comparator="EQ">
               <CheckValue>SOCIAL FUNCTION</CheckValue>
            </RangeCheck>
            <RangeCheck SoftHard="Soft" def:ItemOID="IT.QS.QSTESTCD" Comparator="EQ">
               <CheckValue>IBDQ0116</CheckValue>
            </RangeCheck>
         </def:WhereClauseDef>
         <def:WhereClauseDef OID="WC.QS.QSTESTCD.IBDQ0117.QS.QSCAT.1.QS.QSSCAT.1">
            <RangeCheck SoftHard="Soft" def:ItemOID="IT.QS.QSCAT" Comparator="EQ">
               <CheckValue>IBDQ</CheckValue>
            </RangeCheck>
            <RangeCheck SoftHard="Soft" def:ItemOID="IT.QS.QSSCAT" Comparator="EQ">
               <CheckValue>ABDOMINAL SYMPTOMS</CheckValue>
            </RangeCheck>
            <RangeCheck SoftHard="Soft" def:ItemOID="IT.QS.QSTESTCD" Comparator="EQ">
               <CheckValue>IBDQ0117</CheckValue>
            </RangeCheck>
         </def:WhereClauseDef>
         <def:WhereClauseDef OID="WC.QS.QSTESTCD.IBDQ0118.QS.QSCAT.1.QS.QSSCAT.3">
            <RangeCheck SoftHard="Soft" def:ItemOID="IT.QS.QSCAT" Comparator="EQ">
               <CheckValue>IBDQ</CheckValue>
            </RangeCheck>
            <RangeCheck SoftHard="Soft" def:ItemOID="IT.QS.QSSCAT" Comparator="EQ">
               <CheckValue>GENERAL CONDITION</CheckValue>
            </RangeCheck>
            <RangeCheck SoftHard="Soft" def:ItemOID="IT.QS.QSTESTCD" Comparator="EQ">
               <CheckValue>IBDQ0118</CheckValue>
            </RangeCheck>
         </def:WhereClauseDef>
         <def:WhereClauseDef OID="WC.QS.QSTESTCD.IBDQ0119.QS.QSCAT.1.QS.QSSCAT.2">
            <RangeCheck SoftHard="Soft" def:ItemOID="IT.QS.QSCAT" Comparator="EQ">
               <CheckValue>IBDQ</CheckValue>
            </RangeCheck>
            <RangeCheck SoftHard="Soft" def:ItemOID="IT.QS.QSSCAT" Comparator="EQ">
               <CheckValue>EMOTION</CheckValue>
            </RangeCheck>
            <RangeCheck SoftHard="Soft" def:ItemOID="IT.QS.QSTESTCD" Comparator="EQ">
               <CheckValue>IBDQ0119</CheckValue>
            </RangeCheck>
         </def:WhereClauseDef>
         <def:WhereClauseDef OID="WC.QS.QSTESTCD.IBDQ0120.QS.QSCAT.1.QS.QSSCAT.1">
            <RangeCheck SoftHard="Soft" def:ItemOID="IT.QS.QSCAT" Comparator="EQ">
               <CheckValue>IBDQ</CheckValue>
            </RangeCheck>
            <RangeCheck SoftHard="Soft" def:ItemOID="IT.QS.QSSCAT" Comparator="EQ">
               <CheckValue>ABDOMINAL SYMPTOMS</CheckValue>
            </RangeCheck>
            <RangeCheck SoftHard="Soft" def:ItemOID="IT.QS.QSTESTCD" Comparator="EQ">
               <CheckValue>IBDQ0120</CheckValue>
            </RangeCheck>
         </def:WhereClauseDef>
         <def:WhereClauseDef OID="WC.QS.QSTESTCD.IBDQ0121.QS.QSCAT.1.QS.QSSCAT.2">
            <RangeCheck SoftHard="Soft" def:ItemOID="IT.QS.QSCAT" Comparator="EQ">
               <CheckValue>IBDQ</CheckValue>
            </RangeCheck>
            <RangeCheck SoftHard="Soft" def:ItemOID="IT.QS.QSSCAT" Comparator="EQ">
               <CheckValue>EMOTION</CheckValue>
            </RangeCheck>
            <RangeCheck SoftHard="Soft" def:ItemOID="IT.QS.QSTESTCD" Comparator="EQ">
               <CheckValue>IBDQ0121</CheckValue>
            </RangeCheck>
         </def:WhereClauseDef>
         <def:WhereClauseDef OID="WC.QS.QSTESTCD.IBDQ0122.QS.QSCAT.1.QS.QSSCAT.1">
            <RangeCheck SoftHard="Soft" def:ItemOID="IT.QS.QSCAT" Comparator="EQ">
               <CheckValue>IBDQ</CheckValue>
            </RangeCheck>
            <RangeCheck SoftHard="Soft" def:ItemOID="IT.QS.QSSCAT" Comparator="EQ">
               <CheckValue>ABDOMINAL SYMPTOMS</CheckValue>
            </RangeCheck>
            <RangeCheck SoftHard="Soft" def:ItemOID="IT.QS.QSTESTCD" Comparator="EQ">
               <CheckValue>IBDQ0122</CheckValue>
            </RangeCheck>
         </def:WhereClauseDef>
         <def:WhereClauseDef OID="WC.QS.QSTESTCD.IBDQ0123.QS.QSCAT.1.QS.QSSCAT.2">
            <RangeCheck SoftHard="Soft" def:ItemOID="IT.QS.QSCAT" Comparator="EQ">
               <CheckValue>IBDQ</CheckValue>
            </RangeCheck>
            <RangeCheck SoftHard="Soft" def:ItemOID="IT.QS.QSSCAT" Comparator="EQ">
               <CheckValue>EMOTION</CheckValue>
            </RangeCheck>
            <RangeCheck SoftHard="Soft" def:ItemOID="IT.QS.QSTESTCD" Comparator="EQ">
               <CheckValue>IBDQ0123</CheckValue>
            </RangeCheck>
         </def:WhereClauseDef>
         <def:WhereClauseDef OID="WC.QS.QSTESTCD.IBDQ0124.QS.QSCAT.1.QS.QSSCAT.1">
            <RangeCheck SoftHard="Soft" def:ItemOID="IT.QS.QSCAT" Comparator="EQ">
               <CheckValue>IBDQ</CheckValue>
            </RangeCheck>
            <RangeCheck SoftHard="Soft" def:ItemOID="IT.QS.QSSCAT" Comparator="EQ">
               <CheckValue>ABDOMINAL SYMPTOMS</CheckValue>
            </RangeCheck>
            <RangeCheck SoftHard="Soft" def:ItemOID="IT.QS.QSTESTCD" Comparator="EQ">
               <CheckValue>IBDQ0124</CheckValue>
            </RangeCheck>
         </def:WhereClauseDef>
         <def:WhereClauseDef OID="WC.QS.QSTESTCD.IBDQ0125.QS.QSCAT.1.QS.QSSCAT.2">
            <RangeCheck SoftHard="Soft" def:ItemOID="IT.QS.QSCAT" Comparator="EQ">
               <CheckValue>IBDQ</CheckValue>
            </RangeCheck>
            <RangeCheck SoftHard="Soft" def:ItemOID="IT.QS.QSSCAT" Comparator="EQ">
               <CheckValue>EMOTION</CheckValue>
            </RangeCheck>
            <RangeCheck SoftHard="Soft" def:ItemOID="IT.QS.QSTESTCD" Comparator="EQ">
               <CheckValue>IBDQ0125</CheckValue>
            </RangeCheck>
         </def:WhereClauseDef>
         <def:WhereClauseDef OID="WC.QS.QSTESTCD.IBDQ0126.QS.QSCAT.1.QS.QSSCAT.1">
            <RangeCheck SoftHard="Soft" def:ItemOID="IT.QS.QSCAT" Comparator="EQ">
               <CheckValue>IBDQ</CheckValue>
            </RangeCheck>
            <RangeCheck SoftHard="Soft" def:ItemOID="IT.QS.QSSCAT" Comparator="EQ">
               <CheckValue>ABDOMINAL SYMPTOMS</CheckValue>
            </RangeCheck>
            <RangeCheck SoftHard="Soft" def:ItemOID="IT.QS.QSTESTCD" Comparator="EQ">
               <CheckValue>IBDQ0126</CheckValue>
            </RangeCheck>
         </def:WhereClauseDef>
         <def:WhereClauseDef OID="WC.QS.QSTESTCD.IBDQ0127.QS.QSCAT.1.QS.QSSCAT.2">
            <RangeCheck SoftHard="Soft" def:ItemOID="IT.QS.QSCAT" Comparator="EQ">
               <CheckValue>IBDQ</CheckValue>
            </RangeCheck>
            <RangeCheck SoftHard="Soft" def:ItemOID="IT.QS.QSSCAT" Comparator="EQ">
               <CheckValue>EMOTION</CheckValue>
            </RangeCheck>
            <RangeCheck SoftHard="Soft" def:ItemOID="IT.QS.QSTESTCD" Comparator="EQ">
               <CheckValue>IBDQ0127</CheckValue>
            </RangeCheck>
         </def:WhereClauseDef>
         <def:WhereClauseDef OID="WC.QS.QSTESTCD.IBDQ0128.QS.QSCAT.1.QS.QSSCAT.4">
            <RangeCheck SoftHard="Soft" def:ItemOID="IT.QS.QSCAT" Comparator="EQ">
               <CheckValue>IBDQ</CheckValue>
            </RangeCheck>
            <RangeCheck SoftHard="Soft" def:ItemOID="IT.QS.QSSCAT" Comparator="EQ">
               <CheckValue>SOCIAL FUNCTION</CheckValue>
            </RangeCheck>
            <RangeCheck SoftHard="Soft" def:ItemOID="IT.QS.QSTESTCD" Comparator="EQ">
               <CheckValue>IBDQ0128</CheckValue>
            </RangeCheck>
         </def:WhereClauseDef>
         <def:WhereClauseDef OID="WC.QS.QSTESTCD.IBDQ0129.QS.QSCAT.1.QS.QSSCAT.1">
            <RangeCheck SoftHard="Soft" def:ItemOID="IT.QS.QSCAT" Comparator="EQ">
               <CheckValue>IBDQ</CheckValue>
            </RangeCheck>
            <RangeCheck SoftHard="Soft" def:ItemOID="IT.QS.QSSCAT" Comparator="EQ">
               <CheckValue>ABDOMINAL SYMPTOMS</CheckValue>
            </RangeCheck>
            <RangeCheck SoftHard="Soft" def:ItemOID="IT.QS.QSTESTCD" Comparator="EQ">
               <CheckValue>IBDQ0129</CheckValue>
            </RangeCheck>
         </def:WhereClauseDef>
         <def:WhereClauseDef OID="WC.QS.QSTESTCD.IBDQ0130.QS.QSCAT.1.QS.QSSCAT.2">
            <RangeCheck SoftHard="Soft" def:ItemOID="IT.QS.QSCAT" Comparator="EQ">
               <CheckValue>IBDQ</CheckValue>
            </RangeCheck>
            <RangeCheck SoftHard="Soft" def:ItemOID="IT.QS.QSSCAT" Comparator="EQ">
               <CheckValue>EMOTION</CheckValue>
            </RangeCheck>
            <RangeCheck SoftHard="Soft" def:ItemOID="IT.QS.QSTESTCD" Comparator="EQ">
               <CheckValue>IBDQ0130</CheckValue>
            </RangeCheck>
         </def:WhereClauseDef>
         <def:WhereClauseDef OID="WC.QS.QSTESTCD.IBDQ0131.QS.QSCAT.1.QS.QSSCAT.2">
            <RangeCheck SoftHard="Soft" def:ItemOID="IT.QS.QSCAT" Comparator="EQ">
               <CheckValue>IBDQ</CheckValue>
            </RangeCheck>
            <RangeCheck SoftHard="Soft" def:ItemOID="IT.QS.QSSCAT" Comparator="EQ">
               <CheckValue>EMOTION</CheckValue>
            </RangeCheck>
            <RangeCheck SoftHard="Soft" def:ItemOID="IT.QS.QSTESTCD" Comparator="EQ">
               <CheckValue>IBDQ0131</CheckValue>
            </RangeCheck>
         </def:WhereClauseDef>
         <def:WhereClauseDef OID="WC.QS.QSTESTCD.IBDQ0132.QS.QSCAT.1.QS.QSSCAT.2">
            <RangeCheck SoftHard="Soft" def:ItemOID="IT.QS.QSCAT" Comparator="EQ">
               <CheckValue>IBDQ</CheckValue>
            </RangeCheck>
            <RangeCheck SoftHard="Soft" def:ItemOID="IT.QS.QSSCAT" Comparator="EQ">
               <CheckValue>EMOTION</CheckValue>
            </RangeCheck>
            <RangeCheck SoftHard="Soft" def:ItemOID="IT.QS.QSTESTCD" Comparator="EQ">
               <CheckValue>IBDQ0132</CheckValue>
            </RangeCheck>
         </def:WhereClauseDef>
         <def:WhereClauseDef OID="WC.RS.RSTESTCD.ENDOSC.RS.RSCAT.1.RS.RSSCAT.3">
            <RangeCheck SoftHard="Soft" def:ItemOID="IT.RS.RSCAT" Comparator="EQ">
               <CheckValue>MAYO SCORE</CheckValue>
            </RangeCheck>
            <RangeCheck SoftHard="Soft" def:ItemOID="IT.RS.RSSCAT" Comparator="EQ">
               <CheckValue>MAYO SUB SCORE</CheckValue>
            </RangeCheck>
            <RangeCheck SoftHard="Soft" def:ItemOID="IT.RS.RSTESTCD" Comparator="EQ">
               <CheckValue>ENDOSC</CheckValue>
            </RangeCheck>
         </def:WhereClauseDef>
         <def:WhereClauseDef OID="WC.RS.RSTESTCD.FDENDO.RS.RSCAT.1.RS.RSSCAT.3">
            <RangeCheck SoftHard="Soft" def:ItemOID="IT.RS.RSCAT" Comparator="EQ">
               <CheckValue>MAYO SCORE</CheckValue>
            </RangeCheck>
            <RangeCheck SoftHard="Soft" def:ItemOID="IT.RS.RSSCAT" Comparator="EQ">
               <CheckValue>MAYO SUB SCORE</CheckValue>
            </RangeCheck>
            <RangeCheck SoftHard="Soft" def:ItemOID="IT.RS.RSTESTCD" Comparator="EQ">
               <CheckValue>FDENDO</CheckValue>
            </RangeCheck>
         </def:WhereClauseDef>
         <def:WhereClauseDef OID="WC.RS.RSTESTCD.MAYODSCT.RS.RSCAT.1.RS.RSSCAT.1">
            <RangeCheck SoftHard="Soft" def:ItemOID="IT.RS.RSCAT" Comparator="EQ">
               <CheckValue>MAYO SCORE</CheckValue>
            </RangeCheck>
            <RangeCheck SoftHard="Soft" def:ItemOID="IT.RS.RSSCAT" Comparator="EQ">
               <CheckValue>DIARY MAYO</CheckValue>
            </RangeCheck>
            <RangeCheck SoftHard="Soft" def:ItemOID="IT.RS.RSTESTCD" Comparator="EQ">
               <CheckValue>MAYODSCT</CheckValue>
            </RangeCheck>
         </def:WhereClauseDef>
         <def:WhereClauseDef OID="WC.RS.RSTESTCD.OVRLSC.RS.RSCAT.1.RS.RSSCAT.2">
            <RangeCheck SoftHard="Soft" def:ItemOID="IT.RS.RSCAT" Comparator="EQ">
               <CheckValue>MAYO SCORE</CheckValue>
            </RangeCheck>
            <RangeCheck SoftHard="Soft" def:ItemOID="IT.RS.RSSCAT" Comparator="EQ">
               <CheckValue>ENDOSCOPY</CheckValue>
            </RangeCheck>
            <RangeCheck SoftHard="Soft" def:ItemOID="IT.RS.RSTESTCD" Comparator="EQ">
               <CheckValue>OVRLSC</CheckValue>
            </RangeCheck>
         </def:WhereClauseDef>
         <def:WhereClauseDef OID="WC.RS.RSTESTCD.PHYASS.RS.RSCAT.1.RS.RSSCAT.3">
            <RangeCheck SoftHard="Soft" def:ItemOID="IT.RS.RSCAT" Comparator="EQ">
               <CheckValue>MAYO SCORE</CheckValue>
            </RangeCheck>
            <RangeCheck SoftHard="Soft" def:ItemOID="IT.RS.RSSCAT" Comparator="EQ">
               <CheckValue>MAYO SUB SCORE</CheckValue>
            </RangeCheck>
            <RangeCheck SoftHard="Soft" def:ItemOID="IT.RS.RSTESTCD" Comparator="EQ">
               <CheckValue>PHYASS</CheckValue>
            </RangeCheck>
         </def:WhereClauseDef>
         <def:WhereClauseDef OID="WC.RS.RSTESTCD.RECBLEED.RS.RSCAT.1.RS.RSSCAT.1">
            <RangeCheck SoftHard="Soft" def:ItemOID="IT.RS.RSCAT" Comparator="EQ">
               <CheckValue>MAYO SCORE</CheckValue>
            </RangeCheck>
            <RangeCheck SoftHard="Soft" def:ItemOID="IT.RS.RSSCAT" Comparator="EQ">
               <CheckValue>DIARY MAYO</CheckValue>
            </RangeCheck>
            <RangeCheck SoftHard="Soft" def:ItemOID="IT.RS.RSTESTCD" Comparator="EQ">
               <CheckValue>RECBLEED</CheckValue>
            </RangeCheck>
         </def:WhereClauseDef>
         <def:WhereClauseDef OID="WC.RS.RSTESTCD.RSALL.RS.RSCAT.1.RS.RSSCAT.2">
            <RangeCheck SoftHard="Soft" def:ItemOID="IT.RS.RSCAT" Comparator="EQ">
               <CheckValue>MAYO SCORE</CheckValue>
            </RangeCheck>
            <RangeCheck SoftHard="Soft" def:ItemOID="IT.RS.RSSCAT" Comparator="EQ">
               <CheckValue>ENDOSCOPY</CheckValue>
            </RangeCheck>
            <RangeCheck SoftHard="Soft" def:ItemOID="IT.RS.RSTESTCD" Comparator="EQ">
               <CheckValue>RSALL</CheckValue>
            </RangeCheck>
         </def:WhereClauseDef>
         <def:WhereClauseDef OID="WC.RS.RSTESTCD.SSCRECT.RS.RSCAT.1.RS.RSSCAT.2">
            <RangeCheck SoftHard="Soft" def:ItemOID="IT.RS.RSCAT" Comparator="EQ">
               <CheckValue>MAYO SCORE</CheckValue>
            </RangeCheck>
            <RangeCheck SoftHard="Soft" def:ItemOID="IT.RS.RSSCAT" Comparator="EQ">
               <CheckValue>ENDOSCOPY</CheckValue>
            </RangeCheck>
            <RangeCheck SoftHard="Soft" def:ItemOID="IT.RS.RSTESTCD" Comparator="EQ">
               <CheckValue>SSCRECT</CheckValue>
            </RangeCheck>
         </def:WhereClauseDef>
         <def:WhereClauseDef OID="WC.RS.RSTESTCD.SSCSIGCO.RS.RSCAT.1.RS.RSSCAT.2">
            <RangeCheck SoftHard="Soft" def:ItemOID="IT.RS.RSCAT" Comparator="EQ">
               <CheckValue>MAYO SCORE</CheckValue>
            </RangeCheck>
            <RangeCheck SoftHard="Soft" def:ItemOID="IT.RS.RSSCAT" Comparator="EQ">
               <CheckValue>ENDOSCOPY</CheckValue>
            </RangeCheck>
            <RangeCheck SoftHard="Soft" def:ItemOID="IT.RS.RSTESTCD" Comparator="EQ">
               <CheckValue>SSCSIGCO</CheckValue>
            </RangeCheck>
         </def:WhereClauseDef>
         <def:WhereClauseDef OID="WC.RS.RSTESTCD.STOFREQ.RS.RSCAT.1.RS.RSSCAT.1">
            <RangeCheck SoftHard="Soft" def:ItemOID="IT.RS.RSCAT" Comparator="EQ">
               <CheckValue>MAYO SCORE</CheckValue>
            </RangeCheck>
            <RangeCheck SoftHard="Soft" def:ItemOID="IT.RS.RSSCAT" Comparator="EQ">
               <CheckValue>DIARY MAYO</CheckValue>
            </RangeCheck>
            <RangeCheck SoftHard="Soft" def:ItemOID="IT.RS.RSTESTCD" Comparator="EQ">
               <CheckValue>STOFREQ</CheckValue>
            </RangeCheck>
         </def:WhereClauseDef>
         <def:WhereClauseDef OID="WC.SUPPAE.QNAM.AEDISCDT">
            <RangeCheck SoftHard="Soft" def:ItemOID="IT.SUPPAE.QNAM" Comparator="EQ">
               <CheckValue>AEDISCDT</CheckValue>
            </RangeCheck>
         </def:WhereClauseDef>
         <def:WhereClauseDef OID="WC.SUPPAE.QNAM.AEHOSPDT">
            <RangeCheck SoftHard="Soft" def:ItemOID="IT.SUPPAE.QNAM" Comparator="EQ">
               <CheckValue>AEHOSPDT</CheckValue>
            </RangeCheck>
         </def:WhereClauseDef>
         <def:WhereClauseDef OID="WC.SUPPAE.QNAM.AERELPR">
            <RangeCheck SoftHard="Soft" def:ItemOID="IT.SUPPAE.QNAM" Comparator="EQ">
               <CheckValue>AERELPR</CheckValue>
            </RangeCheck>
         </def:WhereClauseDef>
         <def:WhereClauseDef OID="WC.SUPPAE.QNAM.AESI">
            <RangeCheck SoftHard="Soft" def:ItemOID="IT.SUPPAE.QNAM" Comparator="EQ">
               <CheckValue>AESI</CheckValue>
            </RangeCheck>
         </def:WhereClauseDef>
         <def:WhereClauseDef OID="WC.SUPPAE.QNAM.AEVCDVER">
            <RangeCheck SoftHard="Soft" def:ItemOID="IT.SUPPAE.QNAM" Comparator="EQ">
               <CheckValue>AEVCDVER</CheckValue>
            </RangeCheck>
         </def:WhereClauseDef>
         <def:WhereClauseDef OID="WC.SUPPCE.QNAM.SUBJID">
            <RangeCheck SoftHard="Soft" def:ItemOID="IT.SUPPCE.QNAM" Comparator="EQ">
               <CheckValue>SUBJID</CheckValue>
            </RangeCheck>
         </def:WhereClauseDef>
         <def:WhereClauseDef OID="WC.SUPPCM.QNAM.ATCCODE1">
            <RangeCheck SoftHard="Soft" def:ItemOID="IT.SUPPCM.QNAM" Comparator="EQ">
               <CheckValue>ATCCODE1</CheckValue>
            </RangeCheck>
         </def:WhereClauseDef>
         <def:WhereClauseDef OID="WC.SUPPCM.QNAM.ATCCODE2">
            <RangeCheck SoftHard="Soft" def:ItemOID="IT.SUPPCM.QNAM" Comparator="EQ">
               <CheckValue>ATCCODE2</CheckValue>
            </RangeCheck>
         </def:WhereClauseDef>
         <def:WhereClauseDef OID="WC.SUPPCM.QNAM.ATCCODE3">
            <RangeCheck SoftHard="Soft" def:ItemOID="IT.SUPPCM.QNAM" Comparator="EQ">
               <CheckValue>ATCCODE3</CheckValue>
            </RangeCheck>
         </def:WhereClauseDef>
         <def:WhereClauseDef OID="WC.SUPPCM.QNAM.ATCCODE4">
            <RangeCheck SoftHard="Soft" def:ItemOID="IT.SUPPCM.QNAM" Comparator="EQ">
               <CheckValue>ATCCODE4</CheckValue>
            </RangeCheck>
         </def:WhereClauseDef>
         <def:WhereClauseDef OID="WC.SUPPCM.QNAM.ATCTEXT1">
            <RangeCheck SoftHard="Soft" def:ItemOID="IT.SUPPCM.QNAM" Comparator="EQ">
               <CheckValue>ATCTEXT1</CheckValue>
            </RangeCheck>
         </def:WhereClauseDef>
         <def:WhereClauseDef OID="WC.SUPPCM.QNAM.ATCTEXT2">
            <RangeCheck SoftHard="Soft" def:ItemOID="IT.SUPPCM.QNAM" Comparator="EQ">
               <CheckValue>ATCTEXT2</CheckValue>
            </RangeCheck>
         </def:WhereClauseDef>
         <def:WhereClauseDef OID="WC.SUPPCM.QNAM.ATCTEXT3">
            <RangeCheck SoftHard="Soft" def:ItemOID="IT.SUPPCM.QNAM" Comparator="EQ">
               <CheckValue>ATCTEXT3</CheckValue>
            </RangeCheck>
         </def:WhereClauseDef>
         <def:WhereClauseDef OID="WC.SUPPCM.QNAM.ATCTEXT4">
            <RangeCheck SoftHard="Soft" def:ItemOID="IT.SUPPCM.QNAM" Comparator="EQ">
               <CheckValue>ATCTEXT4</CheckValue>
            </RangeCheck>
         </def:WhereClauseDef>
         <def:WhereClauseDef OID="WC.SUPPCM.QNAM.CMDECOD1">
            <RangeCheck SoftHard="Soft" def:ItemOID="IT.SUPPCM.QNAM" Comparator="EQ">
               <CheckValue>CMDECOD1</CheckValue>
            </RangeCheck>
         </def:WhereClauseDef>
         <def:WhereClauseDef OID="WC.SUPPCM.QNAM.CMINDAE1">
            <RangeCheck SoftHard="Soft" def:ItemOID="IT.SUPPCM.QNAM" Comparator="EQ">
               <CheckValue>CMINDAE1</CheckValue>
            </RangeCheck>
         </def:WhereClauseDef>
         <def:WhereClauseDef OID="WC.SUPPCM.QNAM.CMINDAE2">
            <RangeCheck SoftHard="Soft" def:ItemOID="IT.SUPPCM.QNAM" Comparator="EQ">
               <CheckValue>CMINDAE2</CheckValue>
            </RangeCheck>
         </def:WhereClauseDef>
         <def:WhereClauseDef OID="WC.SUPPCM.QNAM.CMINDMH1">
            <RangeCheck SoftHard="Soft" def:ItemOID="IT.SUPPCM.QNAM" Comparator="EQ">
               <CheckValue>CMINDMH1</CheckValue>
            </RangeCheck>
         </def:WhereClauseDef>
         <def:WhereClauseDef OID="WC.SUPPCM.QNAM.CMINDMH2">
            <RangeCheck SoftHard="Soft" def:ItemOID="IT.SUPPCM.QNAM" Comparator="EQ">
               <CheckValue>CMINDMH2</CheckValue>
            </RangeCheck>
         </def:WhereClauseDef>
         <def:WhereClauseDef OID="WC.SUPPCM.QNAM.CMVCDVER">
            <RangeCheck SoftHard="Soft" def:ItemOID="IT.SUPPCM.QNAM" Comparator="EQ">
               <CheckValue>CMVCDVER</CheckValue>
            </RangeCheck>
         </def:WhereClauseDef>
         <def:WhereClauseDef OID="WC.SUPPCM.QNAM.DRGRECNO">
            <RangeCheck SoftHard="Soft" def:ItemOID="IT.SUPPCM.QNAM" Comparator="EQ">
               <CheckValue>DRGRECNO</CheckValue>
            </RangeCheck>
         </def:WhereClauseDef>
         <def:WhereClauseDef OID="WC.SUPPCM.QNAM.DRGSEQ1">
            <RangeCheck SoftHard="Soft" def:ItemOID="IT.SUPPCM.QNAM" Comparator="EQ">
               <CheckValue>DRGSEQ1</CheckValue>
            </RangeCheck>
         </def:WhereClauseDef>
         <def:WhereClauseDef OID="WC.SUPPCM.QNAM.DRGSEQ2">
            <RangeCheck SoftHard="Soft" def:ItemOID="IT.SUPPCM.QNAM" Comparator="EQ">
               <CheckValue>DRGSEQ2</CheckValue>
            </RangeCheck>
         </def:WhereClauseDef>
         <def:WhereClauseDef OID="WC.SUPPCM.QNAM.TRADE1">
            <RangeCheck SoftHard="Soft" def:ItemOID="IT.SUPPCM.QNAM" Comparator="EQ">
               <CheckValue>TRADE1</CheckValue>
            </RangeCheck>
         </def:WhereClauseDef>
         <def:WhereClauseDef OID="WC.SUPPCM.QNAM.TRADE2">
            <RangeCheck SoftHard="Soft" def:ItemOID="IT.SUPPCM.QNAM" Comparator="EQ">
               <CheckValue>TRADE2</CheckValue>
            </RangeCheck>
         </def:WhereClauseDef>
         <def:WhereClauseDef OID="WC.SUPPDM.QNAM.DIAGGRP">
            <RangeCheck SoftHard="Soft" def:ItemOID="IT.SUPPDM.QNAM" Comparator="EQ">
               <CheckValue>DIAGGRP</CheckValue>
            </RangeCheck>
         </def:WhereClauseDef>
         <def:WhereClauseDef OID="WC.SUPPDM.QNAM.PROTVRSN">
            <RangeCheck SoftHard="Soft" def:ItemOID="IT.SUPPDM.QNAM" Comparator="EQ">
               <CheckValue>PROTVRSN</CheckValue>
            </RangeCheck>
         </def:WhereClauseDef>
         <def:WhereClauseDef OID="WC.SUPPDM.QNAM.RACESASN">
            <RangeCheck SoftHard="Soft" def:ItemOID="IT.SUPPDM.QNAM" Comparator="EQ">
               <CheckValue>RACESASN</CheckValue>
            </RangeCheck>
         </def:WhereClauseDef>
         <def:WhereClauseDef OID="WC.SUPPDM.QNAM.STDYSTYN">
            <RangeCheck SoftHard="Soft" def:ItemOID="IT.SUPPDM.QNAM" Comparator="EQ">
               <CheckValue>STDYSTYN</CheckValue>
            </RangeCheck>
         </def:WhereClauseDef>
         <def:WhereClauseDef OID="WC.SUPPDM.QNAM.STDYST_1">
            <RangeCheck SoftHard="Soft" def:ItemOID="IT.SUPPDM.QNAM" Comparator="EQ">
               <CheckValue>STDYST_1</CheckValue>
            </RangeCheck>
         </def:WhereClauseDef>
         <def:WhereClauseDef OID="WC.SUPPDS.QNAM.SCR1STNO">
            <RangeCheck SoftHard="Soft" def:ItemOID="IT.SUPPDS.QNAM" Comparator="EQ">
               <CheckValue>SCR1STNO</CheckValue>
            </RangeCheck>
         </def:WhereClauseDef>
         <def:WhereClauseDef OID="WC.SUPPDS.QNAM.SCR1STST">
            <RangeCheck SoftHard="Soft" def:ItemOID="IT.SUPPDS.QNAM" Comparator="EQ">
               <CheckValue>SCR1STST</CheckValue>
            </RangeCheck>
         </def:WhereClauseDef>
         <def:WhereClauseDef OID="WC.SUPPDS.QNAM.SCRSTD">
            <RangeCheck SoftHard="Soft" def:ItemOID="IT.SUPPDS.QNAM" Comparator="EQ">
               <CheckValue>SCRSTD</CheckValue>
            </RangeCheck>
         </def:WhereClauseDef>
         <def:WhereClauseDef OID="WC.SUPPDS.QNAM.SUBJID">
            <RangeCheck SoftHard="Soft" def:ItemOID="IT.SUPPDS.QNAM" Comparator="EQ">
               <CheckValue>SUBJID</CheckValue>
            </RangeCheck>
         </def:WhereClauseDef>
         <def:WhereClauseDef OID="WC.SUPPDV.QNAM.ACTTYP">
            <RangeCheck SoftHard="Soft" def:ItemOID="IT.SUPPDV.QNAM" Comparator="EQ">
               <CheckValue>ACTTYP</CheckValue>
            </RangeCheck>
         </def:WhereClauseDef>
         <def:WhereClauseDef OID="WC.SUPPDV.QNAM.COVIDREL">
            <RangeCheck SoftHard="Soft" def:ItemOID="IT.SUPPDV.QNAM" Comparator="EQ">
               <CheckValue>COVIDREL</CheckValue>
            </RangeCheck>
         </def:WhereClauseDef>
         <def:WhereClauseDef OID="WC.SUPPDV.QNAM.CRARCDTC">
            <RangeCheck SoftHard="Soft" def:ItemOID="IT.SUPPDV.QNAM" Comparator="EQ">
               <CheckValue>CRARCDTC</CheckValue>
            </RangeCheck>
         </def:WhereClauseDef>
         <def:WhereClauseDef OID="WC.SUPPDV.QNAM.DDUPDTC">
            <RangeCheck SoftHard="Soft" def:ItemOID="IT.SUPPDV.QNAM" Comparator="EQ">
               <CheckValue>DDUPDTC</CheckValue>
            </RangeCheck>
         </def:WhereClauseDef>
         <def:WhereClauseDef OID="WC.SUPPDV.QNAM.DVACT1">
            <RangeCheck SoftHard="Soft" def:ItemOID="IT.SUPPDV.QNAM" Comparator="EQ">
               <CheckValue>DVACT1</CheckValue>
            </RangeCheck>
         </def:WhereClauseDef>
         <def:WhereClauseDef OID="WC.SUPPDV.QNAM.DVACT2">
            <RangeCheck SoftHard="Soft" def:ItemOID="IT.SUPPDV.QNAM" Comparator="EQ">
               <CheckValue>DVACT2</CheckValue>
            </RangeCheck>
         </def:WhereClauseDef>
         <def:WhereClauseDef OID="WC.SUPPDV.QNAM.DVACT3">
            <RangeCheck SoftHard="Soft" def:ItemOID="IT.SUPPDV.QNAM" Comparator="EQ">
               <CheckValue>DVACT3</CheckValue>
            </RangeCheck>
         </def:WhereClauseDef>
         <def:WhereClauseDef OID="WC.SUPPDV.QNAM.DVACT4">
            <RangeCheck SoftHard="Soft" def:ItemOID="IT.SUPPDV.QNAM" Comparator="EQ">
               <CheckValue>DVACT4</CheckValue>
            </RangeCheck>
         </def:WhereClauseDef>
         <def:WhereClauseDef OID="WC.SUPPDV.QNAM.DVACT5">
            <RangeCheck SoftHard="Soft" def:ItemOID="IT.SUPPDV.QNAM" Comparator="EQ">
               <CheckValue>DVACT5</CheckValue>
            </RangeCheck>
         </def:WhereClauseDef>
         <def:WhereClauseDef OID="WC.SUPPDV.QNAM.DVACT6">
            <RangeCheck SoftHard="Soft" def:ItemOID="IT.SUPPDV.QNAM" Comparator="EQ">
               <CheckValue>DVACT6</CheckValue>
            </RangeCheck>
         </def:WhereClauseDef>
         <def:WhereClauseDef OID="WC.SUPPDV.QNAM.DVTERM1">
            <RangeCheck SoftHard="Soft" def:ItemOID="IT.SUPPDV.QNAM" Comparator="EQ">
               <CheckValue>DVTERM1</CheckValue>
            </RangeCheck>
         </def:WhereClauseDef>
         <def:WhereClauseDef OID="WC.SUPPDV.QNAM.DVTERM2">
            <RangeCheck SoftHard="Soft" def:ItemOID="IT.SUPPDV.QNAM" Comparator="EQ">
               <CheckValue>DVTERM2</CheckValue>
            </RangeCheck>
         </def:WhereClauseDef>
         <def:WhereClauseDef OID="WC.SUPPDV.QNAM.DVTERM3">
            <RangeCheck SoftHard="Soft" def:ItemOID="IT.SUPPDV.QNAM" Comparator="EQ">
               <CheckValue>DVTERM3</CheckValue>
            </RangeCheck>
         </def:WhereClauseDef>
         <def:WhereClauseDef OID="WC.SUPPDV.QNAM.DVTERM4">
            <RangeCheck SoftHard="Soft" def:ItemOID="IT.SUPPDV.QNAM" Comparator="EQ">
               <CheckValue>DVTERM4</CheckValue>
            </RangeCheck>
         </def:WhereClauseDef>
         <def:WhereClauseDef OID="WC.SUPPDV.QNAM.DVTERM5">
            <RangeCheck SoftHard="Soft" def:ItemOID="IT.SUPPDV.QNAM" Comparator="EQ">
               <CheckValue>DVTERM5</CheckValue>
            </RangeCheck>
         </def:WhereClauseDef>
         <def:WhereClauseDef OID="WC.SUPPDV.QNAM.IMPORTFL">
            <RangeCheck SoftHard="Soft" def:ItemOID="IT.SUPPDV.QNAM" Comparator="EQ">
               <CheckValue>IMPORTFL</CheckValue>
            </RangeCheck>
         </def:WhereClauseDef>
         <def:WhereClauseDef OID="WC.SUPPEC.QNAM.ECACN">
            <RangeCheck SoftHard="Soft" def:ItemOID="IT.SUPPEC.QNAM" Comparator="EQ">
               <CheckValue>ECACN</CheckValue>
            </RangeCheck>
         </def:WhereClauseDef>
         <def:WhereClauseDef OID="WC.SUPPEX.QNAM.EXACN">
            <RangeCheck SoftHard="Soft" def:ItemOID="IT.SUPPEX.QNAM" Comparator="EQ">
               <CheckValue>EXACN</CheckValue>
            </RangeCheck>
         </def:WhereClauseDef>
         <def:WhereClauseDef OID="WC.SUPPFA.QNAM.FALOBXFL">
            <RangeCheck SoftHard="Soft" def:ItemOID="IT.SUPPFA.QNAM" Comparator="EQ">
               <CheckValue>FALOBXFL</CheckValue>
            </RangeCheck>
         </def:WhereClauseDef>
         <def:WhereClauseDef OID="WC.SUPPFA.QNAM.FAORRES1">
            <RangeCheck SoftHard="Soft" def:ItemOID="IT.SUPPFA.QNAM" Comparator="EQ">
               <CheckValue>FAORRES1</CheckValue>
            </RangeCheck>
         </def:WhereClauseDef>
         <def:WhereClauseDef OID="WC.SUPPFA.QNAM.FAORRES2">
            <RangeCheck SoftHard="Soft" def:ItemOID="IT.SUPPFA.QNAM" Comparator="EQ">
               <CheckValue>FAORRES2</CheckValue>
            </RangeCheck>
         </def:WhereClauseDef>
         <def:WhereClauseDef OID="WC.SUPPFA.QNAM.FASTRES1">
            <RangeCheck SoftHard="Soft" def:ItemOID="IT.SUPPFA.QNAM" Comparator="EQ">
               <CheckValue>FASTRES1</CheckValue>
            </RangeCheck>
         </def:WhereClauseDef>
         <def:WhereClauseDef OID="WC.SUPPFA.QNAM.FASTRES2">
            <RangeCheck SoftHard="Soft" def:ItemOID="IT.SUPPFA.QNAM" Comparator="EQ">
               <CheckValue>FASTRES2</CheckValue>
            </RangeCheck>
         </def:WhereClauseDef>
         <def:WhereClauseDef OID="WC.SUPPFA.QNAM.OTHDSLOC">
            <RangeCheck SoftHard="Soft" def:ItemOID="IT.SUPPFA.QNAM" Comparator="EQ">
               <CheckValue>OTHDSLOC</CheckValue>
            </RangeCheck>
         </def:WhereClauseDef>
         <def:WhereClauseDef OID="WC.SUPPFA.QNAM.SUBJID">
            <RangeCheck SoftHard="Soft" def:ItemOID="IT.SUPPFA.QNAM" Comparator="EQ">
               <CheckValue>SUBJID</CheckValue>
            </RangeCheck>
         </def:WhereClauseDef>
         <def:WhereClauseDef OID="WC.SUPPIE.QNAM.SUBJID">
            <RangeCheck SoftHard="Soft" def:ItemOID="IT.SUPPIE.QNAM" Comparator="EQ">
               <CheckValue>SUBJID</CheckValue>
            </RangeCheck>
         </def:WhereClauseDef>
         <def:WhereClauseDef OID="WC.SUPPIS.QNAM.ISCOM">
            <RangeCheck SoftHard="Soft" def:ItemOID="IT.SUPPIS.QNAM" Comparator="EQ">
               <CheckValue>ISCOM</CheckValue>
            </RangeCheck>
         </def:WhereClauseDef>
         <def:WhereClauseDef OID="WC.SUPPIS.QNAM.ISLOBXFL">
            <RangeCheck SoftHard="Soft" def:ItemOID="IT.SUPPIS.QNAM" Comparator="EQ">
               <CheckValue>ISLOBXFL</CheckValue>
            </RangeCheck>
         </def:WhereClauseDef>
         <def:WhereClauseDef OID="WC.SUPPIS.QNAM.ISRUNID">
            <RangeCheck SoftHard="Soft" def:ItemOID="IT.SUPPIS.QNAM" Comparator="EQ">
               <CheckValue>ISRUNID</CheckValue>
            </RangeCheck>
         </def:WhereClauseDef>
         <def:WhereClauseDef OID="WC.SUPPLB.QNAM.LBCOMM">
            <RangeCheck SoftHard="Soft" def:ItemOID="IT.SUPPLB.QNAM" Comparator="EQ">
               <CheckValue>LBCOMM</CheckValue>
            </RangeCheck>
         </def:WhereClauseDef>
         <def:WhereClauseDef OID="WC.SUPPLB.QNAM.LBLOBXFL">
            <RangeCheck SoftHard="Soft" def:ItemOID="IT.SUPPLB.QNAM" Comparator="EQ">
               <CheckValue>LBLOBXFL</CheckValue>
            </RangeCheck>
         </def:WhereClauseDef>
         <def:WhereClauseDef OID="WC.SUPPLB.QNAM.LBSUCAT">
            <RangeCheck SoftHard="Soft" def:ItemOID="IT.SUPPLB.QNAM" Comparator="EQ">
               <CheckValue>LBSUCAT</CheckValue>
            </RangeCheck>
         </def:WhereClauseDef>
         <def:WhereClauseDef OID="WC.SUPPLB.QNAM.SUBJID">
            <RangeCheck SoftHard="Soft" def:ItemOID="IT.SUPPLB.QNAM" Comparator="EQ">
               <CheckValue>SUBJID</CheckValue>
            </RangeCheck>
         </def:WhereClauseDef>
         <def:WhereClauseDef OID="WC.SUPPLB.QNAM.TYPE">
            <RangeCheck SoftHard="Soft" def:ItemOID="IT.SUPPLB.QNAM" Comparator="EQ">
               <CheckValue>TYPE</CheckValue>
            </RangeCheck>
         </def:WhereClauseDef>
         <def:WhereClauseDef OID="WC.SUPPMH.QNAM.MHEVDTYP">
            <RangeCheck SoftHard="Soft" def:ItemOID="IT.SUPPMH.QNAM" Comparator="EQ">
               <CheckValue>MHEVDTYP</CheckValue>
            </RangeCheck>
         </def:WhereClauseDef>
         <def:WhereClauseDef OID="WC.SUPPMH.QNAM.MHVCDVER">
            <RangeCheck SoftHard="Soft" def:ItemOID="IT.SUPPMH.QNAM" Comparator="EQ">
               <CheckValue>MHVCDVER</CheckValue>
            </RangeCheck>
         </def:WhereClauseDef>
         <def:WhereClauseDef OID="WC.SUPPMH.QNAM.SUBJID">
            <RangeCheck SoftHard="Soft" def:ItemOID="IT.SUPPMH.QNAM" Comparator="EQ">
               <CheckValue>SUBJID</CheckValue>
            </RangeCheck>
         </def:WhereClauseDef>
         <def:WhereClauseDef OID="WC.SUPPPC.QNAM.PCLOBXFL">
            <RangeCheck SoftHard="Soft" def:ItemOID="IT.SUPPPC.QNAM" Comparator="EQ">
               <CheckValue>PCLOBXFL</CheckValue>
            </RangeCheck>
         </def:WhereClauseDef>
         <def:WhereClauseDef OID="WC.SUPPPE.QNAM.PELOBXFL">
            <RangeCheck SoftHard="Soft" def:ItemOID="IT.SUPPPE.QNAM" Comparator="EQ">
               <CheckValue>PELOBXFL</CheckValue>
            </RangeCheck>
         </def:WhereClauseDef>
         <def:WhereClauseDef OID="WC.SUPPPE.QNAM.SUBJID">
            <RangeCheck SoftHard="Soft" def:ItemOID="IT.SUPPPE.QNAM" Comparator="EQ">
               <CheckValue>SUBJID</CheckValue>
            </RangeCheck>
         </def:WhereClauseDef>
         <def:WhereClauseDef OID="WC.SUPPPR.QNAM.SUBJID">
            <RangeCheck SoftHard="Soft" def:ItemOID="IT.SUPPPR.QNAM" Comparator="EQ">
               <CheckValue>SUBJID</CheckValue>
            </RangeCheck>
         </def:WhereClauseDef>
         <def:WhereClauseDef OID="WC.SUPPQS.QNAM.QSLOBXFL">
            <RangeCheck SoftHard="Soft" def:ItemOID="IT.SUPPQS.QNAM" Comparator="EQ">
               <CheckValue>QSLOBXFL</CheckValue>
            </RangeCheck>
         </def:WhereClauseDef>
         <def:WhereClauseDef OID="WC.SUPPRS.QNAM.DUPDARFL">
            <RangeCheck SoftHard="Soft" def:ItemOID="IT.SUPPRS.QNAM" Comparator="EQ">
               <CheckValue>DUPDARFL</CheckValue>
            </RangeCheck>
         </def:WhereClauseDef>
         <def:WhereClauseDef OID="WC.SUPPRS.QNAM.RSCMPDTC">
            <RangeCheck SoftHard="Soft" def:ItemOID="IT.SUPPRS.QNAM" Comparator="EQ">
               <CheckValue>RSCMPDTC</CheckValue>
            </RangeCheck>
         </def:WhereClauseDef>
         <def:WhereClauseDef OID="WC.SUPPRS.QNAM.RSLOBXFL">
            <RangeCheck SoftHard="Soft" def:ItemOID="IT.SUPPRS.QNAM" Comparator="EQ">
               <CheckValue>RSLOBXFL</CheckValue>
            </RangeCheck>
         </def:WhereClauseDef>
         <def:WhereClauseDef OID="WC.SUPPRS.QNAM.SUBJID">
            <RangeCheck SoftHard="Soft" def:ItemOID="IT.SUPPRS.QNAM" Comparator="EQ">
               <CheckValue>SUBJID</CheckValue>
            </RangeCheck>
         </def:WhereClauseDef>
         <def:WhereClauseDef OID="WC.SUPPRS.QNAM.VIDADQSN">
            <RangeCheck SoftHard="Soft" def:ItemOID="IT.SUPPRS.QNAM" Comparator="EQ">
               <CheckValue>VIDADQSN</CheckValue>
            </RangeCheck>
         </def:WhereClauseDef>
         <def:WhereClauseDef OID="WC.SUPPRS.QNAM.VIDADSN1">
            <RangeCheck SoftHard="Soft" def:ItemOID="IT.SUPPRS.QNAM" Comparator="EQ">
               <CheckValue>VIDADSN1</CheckValue>
            </RangeCheck>
         </def:WhereClauseDef>
         <def:WhereClauseDef OID="WC.SUPPRS.QNAM.VIDADSN2">
            <RangeCheck SoftHard="Soft" def:ItemOID="IT.SUPPRS.QNAM" Comparator="EQ">
               <CheckValue>VIDADSN2</CheckValue>
            </RangeCheck>
         </def:WhereClauseDef>
         <def:WhereClauseDef OID="WC.SUPPRS.QNAM.VIDADSN3">
            <RangeCheck SoftHard="Soft" def:ItemOID="IT.SUPPRS.QNAM" Comparator="EQ">
               <CheckValue>VIDADSN3</CheckValue>
            </RangeCheck>
         </def:WhereClauseDef>
         <def:WhereClauseDef OID="WC.SUPPRS.QNAM.VIDEADQ">
            <RangeCheck SoftHard="Soft" def:ItemOID="IT.SUPPRS.QNAM" Comparator="EQ">
               <CheckValue>VIDEADQ</CheckValue>
            </RangeCheck>
         </def:WhereClauseDef>
         <def:WhereClauseDef OID="WC.SUPPSU.QNAM.SUBJID">
            <RangeCheck SoftHard="Soft" def:ItemOID="IT.SUPPSU.QNAM" Comparator="EQ">
               <CheckValue>SUBJID</CheckValue>
            </RangeCheck>
         </def:WhereClauseDef>
         <def:WhereClauseDef OID="WC.SUPPSU.QNAM.SUNCF">
            <RangeCheck SoftHard="Soft" def:ItemOID="IT.SUPPSU.QNAM" Comparator="EQ">
               <CheckValue>SUNCF</CheckValue>
            </RangeCheck>
         </def:WhereClauseDef>
         <def:WhereClauseDef OID="WC.SUPPVS.QNAM.SUBJID">
            <RangeCheck SoftHard="Soft" def:ItemOID="IT.SUPPVS.QNAM" Comparator="EQ">
               <CheckValue>SUBJID</CheckValue>
            </RangeCheck>
         </def:WhereClauseDef>
         <def:WhereClauseDef OID="WC.SUPPVS.QNAM.VSLOBXFL">
            <RangeCheck SoftHard="Soft" def:ItemOID="IT.SUPPVS.QNAM" Comparator="EQ">
               <CheckValue>VSLOBXFL</CheckValue>
            </RangeCheck>
         </def:WhereClauseDef>
         <def:WhereClauseDef OID="WC.SUPPXM.QNAM.DIAGGRP">
            <RangeCheck SoftHard="Soft" def:ItemOID="IT.SUPPXM.QNAM" Comparator="EQ">
               <CheckValue>DIAGGRP</CheckValue>
            </RangeCheck>
         </def:WhereClauseDef>
         <def:WhereClauseDef OID="WC.SUPPXM.QNAM.PROTVRSN">
            <RangeCheck SoftHard="Soft" def:ItemOID="IT.SUPPXM.QNAM" Comparator="EQ">
               <CheckValue>PROTVRSN</CheckValue>
            </RangeCheck>
         </def:WhereClauseDef>
         <def:WhereClauseDef OID="WC.SUPPXM.QNAM.RACESASN">
            <RangeCheck SoftHard="Soft" def:ItemOID="IT.SUPPXM.QNAM" Comparator="EQ">
               <CheckValue>RACESASN</CheckValue>
            </RangeCheck>
         </def:WhereClauseDef>
         <def:WhereClauseDef OID="WC.TS.TSPARMCD.ACTSUB">
            <RangeCheck SoftHard="Soft" def:ItemOID="IT.TS.TSPARMCD" Comparator="EQ">
               <CheckValue>ACTSUB</CheckValue>
            </RangeCheck>
         </def:WhereClauseDef>
         <def:WhereClauseDef OID="WC.TS.TSPARMCD.ADAPT">
            <RangeCheck SoftHard="Soft" def:ItemOID="IT.TS.TSPARMCD" Comparator="EQ">
               <CheckValue>ADAPT</CheckValue>
            </RangeCheck>
         </def:WhereClauseDef>
         <def:WhereClauseDef OID="WC.TS.TSPARMCD.ADDON">
            <RangeCheck SoftHard="Soft" def:ItemOID="IT.TS.TSPARMCD" Comparator="EQ">
               <CheckValue>ADDON</CheckValue>
            </RangeCheck>
         </def:WhereClauseDef>
         <def:WhereClauseDef OID="WC.TS.TSPARMCD.AGEMAX">
            <RangeCheck SoftHard="Soft" def:ItemOID="IT.TS.TSPARMCD" Comparator="EQ">
               <CheckValue>AGEMAX</CheckValue>
            </RangeCheck>
         </def:WhereClauseDef>
         <def:WhereClauseDef OID="WC.TS.TSPARMCD.AGEMIN">
            <RangeCheck SoftHard="Soft" def:ItemOID="IT.TS.TSPARMCD" Comparator="EQ">
               <CheckValue>AGEMIN</CheckValue>
            </RangeCheck>
         </def:WhereClauseDef>
         <def:WhereClauseDef OID="WC.TS.TSPARMCD.DCUTDESC">
            <RangeCheck SoftHard="Soft" def:ItemOID="IT.TS.TSPARMCD" Comparator="EQ">
               <CheckValue>DCUTDESC</CheckValue>
            </RangeCheck>
         </def:WhereClauseDef>
         <def:WhereClauseDef OID="WC.TS.TSPARMCD.DCUTDTC">
            <RangeCheck SoftHard="Soft" def:ItemOID="IT.TS.TSPARMCD" Comparator="EQ">
               <CheckValue>DCUTDTC</CheckValue>
            </RangeCheck>
         </def:WhereClauseDef>
         <def:WhereClauseDef OID="WC.TS.TSPARMCD.DOSE">
            <RangeCheck SoftHard="Soft" def:ItemOID="IT.TS.TSPARMCD" Comparator="EQ">
               <CheckValue>DOSE</CheckValue>
            </RangeCheck>
         </def:WhereClauseDef>
         <def:WhereClauseDef OID="WC.TS.TSPARMCD.DOSU">
            <RangeCheck SoftHard="Soft" def:ItemOID="IT.TS.TSPARMCD" Comparator="EQ">
               <CheckValue>DOSU</CheckValue>
            </RangeCheck>
         </def:WhereClauseDef>
         <def:WhereClauseDef OID="WC.TS.TSPARMCD.FCNTRY">
            <RangeCheck SoftHard="Soft" def:ItemOID="IT.TS.TSPARMCD" Comparator="EQ">
               <CheckValue>FCNTRY</CheckValue>
            </RangeCheck>
         </def:WhereClauseDef>
         <def:WhereClauseDef OID="WC.TS.TSPARMCD.HLTSUBJI">
            <RangeCheck SoftHard="Soft" def:ItemOID="IT.TS.TSPARMCD" Comparator="EQ">
               <CheckValue>HLTSUBJI</CheckValue>
            </RangeCheck>
         </def:WhereClauseDef>
         <def:WhereClauseDef OID="WC.TS.TSPARMCD.INDIC">
            <RangeCheck SoftHard="Soft" def:ItemOID="IT.TS.TSPARMCD" Comparator="EQ">
               <CheckValue>INDIC</CheckValue>
            </RangeCheck>
         </def:WhereClauseDef>
         <def:WhereClauseDef OID="WC.TS.TSPARMCD.INTMODEL">
            <RangeCheck SoftHard="Soft" def:ItemOID="IT.TS.TSPARMCD" Comparator="EQ">
               <CheckValue>INTMODEL</CheckValue>
            </RangeCheck>
         </def:WhereClauseDef>
         <def:WhereClauseDef OID="WC.TS.TSPARMCD.INTTYPE">
            <RangeCheck SoftHard="Soft" def:ItemOID="IT.TS.TSPARMCD" Comparator="EQ">
               <CheckValue>INTTYPE</CheckValue>
            </RangeCheck>
         </def:WhereClauseDef>
         <def:WhereClauseDef OID="WC.TS.TSPARMCD.LENGTH">
            <RangeCheck SoftHard="Soft" def:ItemOID="IT.TS.TSPARMCD" Comparator="EQ">
               <CheckValue>LENGTH</CheckValue>
            </RangeCheck>
         </def:WhereClauseDef>
         <def:WhereClauseDef OID="WC.TS.TSPARMCD.NARMS">
            <RangeCheck SoftHard="Soft" def:ItemOID="IT.TS.TSPARMCD" Comparator="EQ">
               <CheckValue>NARMS</CheckValue>
            </RangeCheck>
         </def:WhereClauseDef>
         <def:WhereClauseDef OID="WC.TS.TSPARMCD.OBJPRIM">
            <RangeCheck SoftHard="Soft" def:ItemOID="IT.TS.TSPARMCD" Comparator="EQ">
               <CheckValue>OBJPRIM</CheckValue>
            </RangeCheck>
         </def:WhereClauseDef>
         <def:WhereClauseDef OID="WC.TS.TSPARMCD.OBJSEC">
            <RangeCheck SoftHard="Soft" def:ItemOID="IT.TS.TSPARMCD" Comparator="EQ">
               <CheckValue>OBJSEC</CheckValue>
            </RangeCheck>
         </def:WhereClauseDef>
         <def:WhereClauseDef OID="WC.TS.TSPARMCD.OUTMSPRI">
            <RangeCheck SoftHard="Soft" def:ItemOID="IT.TS.TSPARMCD" Comparator="EQ">
               <CheckValue>OUTMSPRI</CheckValue>
            </RangeCheck>
         </def:WhereClauseDef>
         <def:WhereClauseDef OID="WC.TS.TSPARMCD.OUTMSSEC">
            <RangeCheck SoftHard="Soft" def:ItemOID="IT.TS.TSPARMCD" Comparator="EQ">
               <CheckValue>OUTMSSEC</CheckValue>
            </RangeCheck>
         </def:WhereClauseDef>
         <def:WhereClauseDef OID="WC.TS.TSPARMCD.PCLAS">
            <RangeCheck SoftHard="Soft" def:ItemOID="IT.TS.TSPARMCD" Comparator="EQ">
               <CheckValue>PCLAS</CheckValue>
            </RangeCheck>
         </def:WhereClauseDef>
         <def:WhereClauseDef OID="WC.TS.TSPARMCD.PLANSUB">
            <RangeCheck SoftHard="Soft" def:ItemOID="IT.TS.TSPARMCD" Comparator="EQ">
               <CheckValue>PLANSUB</CheckValue>
            </RangeCheck>
         </def:WhereClauseDef>
         <def:WhereClauseDef OID="WC.TS.TSPARMCD.RANDOM">
            <RangeCheck SoftHard="Soft" def:ItemOID="IT.TS.TSPARMCD" Comparator="EQ">
               <CheckValue>RANDOM</CheckValue>
            </RangeCheck>
         </def:WhereClauseDef>
         <def:WhereClauseDef OID="WC.TS.TSPARMCD.REGID">
            <RangeCheck SoftHard="Soft" def:ItemOID="IT.TS.TSPARMCD" Comparator="EQ">
               <CheckValue>REGID</CheckValue>
            </RangeCheck>
         </def:WhereClauseDef>
         <def:WhereClauseDef OID="WC.TS.TSPARMCD.ROUTE">
            <RangeCheck SoftHard="Soft" def:ItemOID="IT.TS.TSPARMCD" Comparator="EQ">
               <CheckValue>ROUTE</CheckValue>
            </RangeCheck>
         </def:WhereClauseDef>
         <def:WhereClauseDef OID="WC.TS.TSPARMCD.SENDTC">
            <RangeCheck SoftHard="Soft" def:ItemOID="IT.TS.TSPARMCD" Comparator="EQ">
               <CheckValue>SENDTC</CheckValue>
            </RangeCheck>
         </def:WhereClauseDef>
         <def:WhereClauseDef OID="WC.TS.TSPARMCD.SEXPOP">
            <RangeCheck SoftHard="Soft" def:ItemOID="IT.TS.TSPARMCD" Comparator="EQ">
               <CheckValue>SEXPOP</CheckValue>
            </RangeCheck>
         </def:WhereClauseDef>
         <def:WhereClauseDef OID="WC.TS.TSPARMCD.SPONSOR">
            <RangeCheck SoftHard="Soft" def:ItemOID="IT.TS.TSPARMCD" Comparator="EQ">
               <CheckValue>SPONSOR</CheckValue>
            </RangeCheck>
         </def:WhereClauseDef>
         <def:WhereClauseDef OID="WC.TS.TSPARMCD.SSTDTC">
            <RangeCheck SoftHard="Soft" def:ItemOID="IT.TS.TSPARMCD" Comparator="EQ">
               <CheckValue>SSTDTC</CheckValue>
            </RangeCheck>
         </def:WhereClauseDef>
         <def:WhereClauseDef OID="WC.TS.TSPARMCD.STOPRULE">
            <RangeCheck SoftHard="Soft" def:ItemOID="IT.TS.TSPARMCD" Comparator="EQ">
               <CheckValue>STOPRULE</CheckValue>
            </RangeCheck>
         </def:WhereClauseDef>
         <def:WhereClauseDef OID="WC.TS.TSPARMCD.STYPE">
            <RangeCheck SoftHard="Soft" def:ItemOID="IT.TS.TSPARMCD" Comparator="EQ">
               <CheckValue>STYPE</CheckValue>
            </RangeCheck>
         </def:WhereClauseDef>
         <def:WhereClauseDef OID="WC.TS.TSPARMCD.TBLIND">
            <RangeCheck SoftHard="Soft" def:ItemOID="IT.TS.TSPARMCD" Comparator="EQ">
               <CheckValue>TBLIND</CheckValue>
            </RangeCheck>
         </def:WhereClauseDef>
         <def:WhereClauseDef OID="WC.TS.TSPARMCD.TCNTRL">
            <RangeCheck SoftHard="Soft" def:ItemOID="IT.TS.TSPARMCD" Comparator="EQ">
               <CheckValue>TCNTRL</CheckValue>
            </RangeCheck>
         </def:WhereClauseDef>
         <def:WhereClauseDef OID="WC.TS.TSPARMCD.TDIGRP">
            <RangeCheck SoftHard="Soft" def:ItemOID="IT.TS.TSPARMCD" Comparator="EQ">
               <CheckValue>TDIGRP</CheckValue>
            </RangeCheck>
         </def:WhereClauseDef>
         <def:WhereClauseDef OID="WC.TS.TSPARMCD.TINDTP">
            <RangeCheck SoftHard="Soft" def:ItemOID="IT.TS.TSPARMCD" Comparator="EQ">
               <CheckValue>TINDTP</CheckValue>
            </RangeCheck>
         </def:WhereClauseDef>
         <def:WhereClauseDef OID="WC.TS.TSPARMCD.TITLE">
            <RangeCheck SoftHard="Soft" def:ItemOID="IT.TS.TSPARMCD" Comparator="EQ">
               <CheckValue>TITLE</CheckValue>
            </RangeCheck>
         </def:WhereClauseDef>
         <def:WhereClauseDef OID="WC.TS.TSPARMCD.TPHASE">
            <RangeCheck SoftHard="Soft" def:ItemOID="IT.TS.TSPARMCD" Comparator="EQ">
               <CheckValue>TPHASE</CheckValue>
            </RangeCheck>
         </def:WhereClauseDef>
         <def:WhereClauseDef OID="WC.TS.TSPARMCD.TRT">
            <RangeCheck SoftHard="Soft" def:ItemOID="IT.TS.TSPARMCD" Comparator="EQ">
               <CheckValue>TRT</CheckValue>
            </RangeCheck>
         </def:WhereClauseDef>
         <def:WhereClauseDef OID="WC.TS.TSPARMCD.TTYPE">
            <RangeCheck SoftHard="Soft" def:ItemOID="IT.TS.TSPARMCD" Comparator="EQ">
               <CheckValue>TTYPE</CheckValue>
            </RangeCheck>
         </def:WhereClauseDef>
         <def:WhereClauseDef OID="WC.VS.VSTESTCD.DIABP">
            <RangeCheck SoftHard="Soft" def:ItemOID="IT.VS.VSTESTCD" Comparator="EQ">
               <CheckValue>DIABP</CheckValue>
            </RangeCheck>
         </def:WhereClauseDef>
         <def:WhereClauseDef OID="WC.VS.VSTESTCD.HEIGHT">
            <RangeCheck SoftHard="Soft" def:ItemOID="IT.VS.VSTESTCD" Comparator="EQ">
               <CheckValue>HEIGHT</CheckValue>
            </RangeCheck>
         </def:WhereClauseDef>
         <def:WhereClauseDef OID="WC.VS.VSTESTCD.PULSE">
            <RangeCheck SoftHard="Soft" def:ItemOID="IT.VS.VSTESTCD" Comparator="EQ">
               <CheckValue>PULSE</CheckValue>
            </RangeCheck>
         </def:WhereClauseDef>
         <def:WhereClauseDef OID="WC.VS.VSTESTCD.RESP">
            <RangeCheck SoftHard="Soft" def:ItemOID="IT.VS.VSTESTCD" Comparator="EQ">
               <CheckValue>RESP</CheckValue>
            </RangeCheck>
         </def:WhereClauseDef>
         <def:WhereClauseDef OID="WC.VS.VSTESTCD.SYSBP">
            <RangeCheck SoftHard="Soft" def:ItemOID="IT.VS.VSTESTCD" Comparator="EQ">
               <CheckValue>SYSBP</CheckValue>
            </RangeCheck>
         </def:WhereClauseDef>
         <def:WhereClauseDef OID="WC.VS.VSTESTCD.TEMP">
            <RangeCheck SoftHard="Soft" def:ItemOID="IT.VS.VSTESTCD" Comparator="EQ">
               <CheckValue>TEMP</CheckValue>
            </RangeCheck>
         </def:WhereClauseDef>
         <def:WhereClauseDef OID="WC.VS.VSTESTCD.WEIGHT">
            <RangeCheck SoftHard="Soft" def:ItemOID="IT.VS.VSTESTCD" Comparator="EQ">
               <CheckValue>WEIGHT</CheckValue>
            </RangeCheck>
         </def:WhereClauseDef>
         <def:WhereClauseDef OID="WC.DS.DSDECOD.ADVERSE EVENT">
            <RangeCheck SoftHard="Soft" def:ItemOID="IT.DS.DSDECOD" Comparator="EQ">
               <CheckValue>ADVERSE EVENT</CheckValue>
            </RangeCheck>
            <RangeCheck SoftHard="Soft" def:ItemOID="IT.DS.DSSCAT" Comparator="NE">
               <CheckValue>END OF STUDY</CheckValue>
            </RangeCheck>
         </def:WhereClauseDef>
         <def:WhereClauseDef OID="WC.DS.DSDECOD.ADVERSE EVENT.EOS">
            <RangeCheck SoftHard="Soft" def:ItemOID="IT.DS.DSDECOD" Comparator="EQ">
               <CheckValue>ADVERSE EVENT</CheckValue>
            </RangeCheck>
            <RangeCheck SoftHard="Soft" def:ItemOID="IT.DS.DSSCAT" Comparator="EQ">
               <CheckValue>END OF STUDY</CheckValue>
            </RangeCheck>
         </def:WhereClauseDef>
         <def:WhereClauseDef OID="WC.DS.DSDECOD.LACK OF EFFICACY.EOT">
            <RangeCheck SoftHard="Soft" def:ItemOID="IT.DS.DSSCAT" Comparator="EQ">
               <CheckValue>END OF TREATMENT</CheckValue>
            </RangeCheck>
            <RangeCheck SoftHard="Soft" def:ItemOID="IT.DS.DSDECOD" Comparator="EQ">
               <CheckValue>LACK OF EFFICACY</CheckValue>
            </RangeCheck>
         </def:WhereClauseDef>
         <def:WhereClauseDef OID="WC.DS.DSDECOD.LACK OF EFFICACY.EOET">
